timestamp_ms,mmg1,mmg2,mmg3,accelX,accelY,accelZ,gyroX,gyroY,gyroZ
87123,2095,1108,1707,16592,-3308,1568,-736,-206,327
87133,2095,1111,1706,16588,-3308,1008,-736,-878,379
87143,2095,1121,1705,16528,-2780,1084,-768,-1678,641
87153,2095,1112,1705,16540,-3040,976,-736,-2149,1007
87163,2095,1123,1706,16524,-2696,1156,-768,-2412,1121
87173,2101,1143,1706,16168,-2696,1576,-752,-2349,1068
87183,2101,1167,1704,16100,-2860,1556,-752,-2298,956
87193,2096,1165,1703,15708,-3112,1432,-768,-1890,587
87203,2095,1165,1703,16028,-3264,1380,-752,-1341,-207
87213,2095,1167,1705,16020,-3148,824,-752,-1718,-1120
87223,2095,1151,1705,15936,-3676,676,-736,-2634,-1978
87233,2099,1159,1705,16304,-3388,1444,-736,-2792,-2526
87243,2099,1171,1703,16512,-3224,1084,-720,-2854,-2759
87253,2093,1139,1704,16680,-3236,692,-704,-3695,-2549
87263,2101,1131,1701,16304,-3536,916,-736,-4207,-2839
87273,2099,1149,1701,15876,-3220,776,-752,-4688,-4104
87283,2095,1158,1703,15572,-3132,1364,-768,-4702,-4731
87293,2095,1143,1705,16840,-2212,1084,-784,-4740,-5356
87303,2094,1167,1705,17848,-676,-668,-784,-5927,-5205
87313,2095,1163,1710,16912,-3012,-516,-768,-7470,-4139
87323,2093,1173,1707,17584,-3152,912,-736,-6955,-2403
87333,2095,1134,1705,17032,-3716,608,-736,-5483,-940
87343,2105,1127,1703,16492,-4468,336,-768,-4151,55
87353,2099,1221,1701,16596,-4224,-264,-768,-3327,152
87363,2088,1159,1703,16208,-3444,548,-752,-2094,-480
87373,2095,979,1701,16448,-3480,-572,-752,-468,-773
87383,2095,931,1701,16816,-2864,-832,-768,-201,-879
87393,2104,1007,1700,16720,-2744,-436,-752,-859,-301
87403,2095,1004,1701,16452,-2632,-540,-784,-1715,-296
87413,2099,981,1703,16712,-2912,-964,-768,-2602,-416
87423,2099,985,1702,16688,-3484,-676,-768,-3221,-291
87433,2100,982,1701,16528,-4088,-440,-752,-3176,-459
87443,2096,985,1700,16424,-4476,-540,-768,-2542,-790
87453,2095,998,1701,16612,-4344,-504,-768,-1632,-837
87463,2099,1001,1705,16676,-4252,-652,-768,-791,-490
87473,2095,1000,1704,16684,-3940,-592,-736,-194,-92
87483,2095,1135,1700,16416,-2932,-1020,-752,276,207
87493,2093,959,1699,16720,-2448,-680,-752,320,665
87503,2095,1011,1701,16604,-2100,-968,-784,-102,654
87513,2095,1081,1701,16740,-2100,-336,-720,-740,725
87523,2098,1023,1702,16488,-2348,-44,-720,-1404,518
87533,2099,1033,1701,16228,-2408,60,-736,-1418,62
87543,2099,1042,1703,16416,-2392,460,-736,-904,-250
87553,2095,1076,1700,16560,-2332,680,-752,-382,-450
87563,2095,1043,1699,16652,-1872,656,-736,-198,-339
87573,2095,1003,1700,16848,-1132,364,-768,-192,-194
87583,2095,991,1703,16504,-1052,52,-720,-467,-161
87593,2095,999,1701,16640,-1268,-64,-736,-1321,-351
87603,2099,983,1700,16556,-1512,148,-768,-2111,-689
87613,2074,956,1703,16504,-1772,-64,-752,-2114,-1117
87623,2088,966,1703,16656,-1760,108,-720,-1540,-1251
87633,2099,955,1701,16844,-2052,-12,-768,-916,-1277
87643,2095,957,1702,16708,-2264,-484,-768,-1016,-906
87653,2099,1014,1696,16672,-2120,-252,-752,-1412,-325
87663,2095,997,1703,16616,-2312,-472,-736,-1388,-363
87673,2096,979,1700,16472,-2532,-660,-768,-1505,-799
87683,2095,983,1695,16248,-2936,-360,-752,-1816,-842
87693,2095,995,1694,16400,-3236,-436,-736,-2074,-856
87703,2095,1006,1694,16588,-3336,-256,-752,-1915,-1190
87713,2096,987,1696,16324,-3220,-292,-752,-1250,-1372
87723,2099,1001,1707,16392,-2980,-312,-784,-479,-1202
87733,2099,1001,1696,16604,-2584,-188,-768,206,-943
87743,2095,993,1695,16568,-2416,-1156,-752,189,-1069
87753,2095,999,1700,16696,-2352,-1324,-768,-382,-1292
87763,2095,997,1695,16720,-2548,-924,-736,-975,-1374
87773,2095,996,1693,16636,-2752,-828,-752,-1424,-1451
87783,2117,1004,1698,16664,-3124,-912,-768,-1754,-1296
87793,2095,1006,1699,16524,-3260,-580,-736,-1767,-1157
87803,2099,999,1700,16548,-3696,-812,-752,-1531,-1052
87813,2095,1004,1701,16480,-4056,-1016,-752,-1300,-1366
87823,2095,1032,1699,16392,-4052,-568,-768,-738,-1537
87833,2095,1069,1695,16284,-3792,-672,-736,75,-1179
87843,2095,1044,1703,16432,-3772,-1240,-752,573,-1134
87853,2095,1067,1695,16556,-3436,-1264,-736,914,-1622
87863,2096,1063,1694,16756,-2792,-992,-768,1492,-1788
87873,2095,1036,1699,17080,-2400,-1564,-768,1623,-1649
87883,2095,1050,1700,17036,-2104,-1964,-720,930,-1366
87893,2095,1055,1695,16696,-2168,-1816,-736,-86,-848
87903,2099,1047,1693,16424,-2140,-1440,-752,-882,-303
87913,2093,1032,1699,16376,-2532,-1948,-720,-1249,-554
87923,2095,1052,1701,16304,-2700,-2352,-736,-1396,-1267
87933,2099,1075,1695,16396,-2372,-1760,-736,-1132,-1256
87943,2094,1048,1703,16856,-2296,-1796,-800,-710,-992
87953,2121,1060,1683,16944,-2104,-2064,-736,-589,-625
87963,2093,1059,1703,16796,-2132,-1980,-752,-932,-51
87973,2095,1043,1702,16640,-2136,-1776,-768,-1567,311
87983,2095,1037,1701,16480,-2608,-1420,-768,-2228,30
87993,2098,1045,1705,16176,-3184,-1368,-720,-2691,-510
88003,2099,1039,1699,16088,-3428,-1036,-752,-2508,-826
88013,2085,1021,1695,16236,-3788,-1056,-736,-1702,-996
88023,2095,1021,1701,16396,-4020,-1364,-736,-845,-1112
88033,2099,1035,1701,16420,-4000,-1824,-752,-287,-1000
88043,2095,1036,1703,16620,-3760,-1764,-768,34,-551
88053,2095,1023,1703,16604,-3432,-2004,-736,138,-304
88063,2105,1021,1705,16392,-3148,-2152,-752,-56,-113
88073,2099,1016,1705,16308,-3108,-2052,-752,-455,13
88083,2095,1017,1703,16280,-3144,-1808,-768,-638,-81
88093,2098,1017,1701,16340,-3120,-1876,-752,-345,-399
88103,2095,1035,1699,16496,-2960,-1556,-752,218,-385
88113,2095,1039,1695,16576,-2664,-1352,-736,818,-7
88123,2095,1033,1699,16668,-2588,-1576,-768,1017,205
88133,2095,1041,1703,16556,-2448,-1972,-768,853,117
88143,2095,1041,1696,16468,-2328,-1948,-736,749,-9
88153,2095,1048,1699,16508,-2320,-2180,-720,616,-237
88163,2097,1055,1699,16584,-2088,-1952,-736,665,-339
88173,2095,1051,1701,16760,-2004,-2048,-736,807,-346
88183,2095,1060,1699,16952,-1644,-1876,-752,798,4
88193,2095,1054,1695,16848,-1484,-1900,-752,757,204
88203,2093,1098,1699,16772,-1380,-2076,-768,504,347
88213,2092,1071,1695,16576,-1540,-2072,-720,159,253
88223,2099,1066,1695,16460,-1244,-1892,-752,146,77
88233,2099,1051,1699,16620,-1608,-2340,-736,40,-121
88243,2095,1077,1695,16820,-1660,-2052,-736,-308,-188
88253,2095,1067,1695,16864,-1620,-1960,-752,-389,119
88263,2095,1061,1695,16768,-1724,-1876,-736,-439,415
88273,2095,1124,1695,16692,-1840,-2148,-768,-604,552
88283,2095,1059,1694,16444,-1932,-1856,-736,-708,483
88293,2095,1069,1692,16448,-2024,-1860,-752,-714,321
88303,2095,1055,1693,16420,-2220,-1904,-736,-687,214
88313,2110,1069,1693,16548,-2192,-1792,-688,-689,184
88323,2097,1064,1693,16800,-2032,-1444,-720,-430,362
88333,2093,1048,1694,16656,-1992,-1740,-768,-334,513
88343,2095,1056,1693,16596,-2176,-2132,-768,-594,571
88353,2095,1093,1693,16504,-1964,-1492,-768,-590,542
88363,2095,1062,1694,16612,-1948,-1772,-736,-434,458
88373,2095,1041,1693,16596,-1996,-1708,-752,-527,313
88383,2095,1063,1695,16716,-1908,-1836,-768,-655,283
88393,2095,1069,1693,16876,-1864,-1484,-768,-538,419
88403,2094,1061,1695,16740,-1912,-1788,-720,-380,535
88413,2094,1051,1695,16608,-1880,-1992,-752,-413,518
88423,2095,1071,1693,16516,-2176,-1816,-736,-585,460
88433,2095,1071,1693,16572,-2176,-1836,-752,-684,384
88443,2095,1064,1694,16552,-2256,-1848,-752,-651,328
88453,2094,1065,1693,16628,-2448,-1864,-736,-596,327
88463,2099,1075,1702,16808,-2404,-1560,-736,-356,466
88473,2095,1073,1689,16740,-2392,-1616,-720,-179,653
88483,2100,1075,1696,16736,-2144,-1752,-752,-122,614
88493,2095,1069,1691,16616,-1928,-1624,-752,-184,559
88503,2095,1063,1693,16512,-2000,-1668,-752,-356,530
88513,2095,1063,1694,16672,-2012,-1840,-736,-635,534
88523,2095,1063,1695,16420,-2076,-1796,-704,-758,478
88533,2095,1067,1694,16648,-2188,-1592,-704,-732,455
88543,2095,1068,1692,16576,-2204,-1424,-768,-533,455
88553,2095,1069,1691,16644,-2164,-1540,-736,-440,550
88563,2095,1065,1694,16628,-2220,-1568,-736,-519,649
88573,2095,1067,1693,16620,-2284,-1688,-768,-621,657
88583,2095,1075,1693,16524,-2332,-1460,-720,-634,746
88593,2095,1076,1693,16420,-2252,-1280,-752,-530,446
88603,2111,1078,1693,16704,-2252,-1516,-752,-475,454
88613,2095,1074,1693,16688,-2276,-1444,-736,-542,450
88623,2094,1067,1686,16632,-2204,-1380,-752,-600,497
88633,2095,1070,1688,16624,-2100,-1184,-720,-519,469
88643,2095,1067,1692,16580,-2072,-1200,-736,-265,362
88653,2095,1043,1690,16632,-1784,-1296,-768,-44,321
88663,2091,1071,1690,16672,-1572,-1232,-752,78,351
88673,2093,1069,1692,16844,-1396,-1444,-736,85,316
88683,2095,1076,1692,16836,-1344,-1500,-736,-79,272
88693,2093,1082,1689,16800,-1228,-1492,-752,-164,298
88703,2072,1075,1690,16848,-1184,-1504,-720,-173,282
88713,2095,1084,1691,16740,-1268,-1628,-736,-323,266
88723,2099,1080,1689,16696,-1464,-1744,-752,-471,322
88733,2093,1084,1689,16620,-1584,-1460,-720,-543,344
88743,2093,1082,1691,16640,-1800,-1516,-768,-561,299
88753,2095,1085,1691,16604,-1832,-1372,-736,-546,266
88763,2095,1087,1689,16608,-1996,-1524,-720,-428,205
88773,2095,1079,1691,16788,-2084,-1308,-736,-289,256
88783,2095,1079,1690,16732,-2200,-1336,-704,-178,267
88793,2095,1085,1689,16700,-2176,-1264,-752,-20,271
88803,2094,1065,1690,16684,-2092,-1580,-768,61,281
88813,2095,1079,1691,16640,-1908,-1796,-720,-22,198
88823,2095,1059,1691,16660,-2040,-1640,-784,-206,152
88833,2095,1128,1689,16664,-2048,-1568,-736,-324,210
88843,2095,1083,1695,16704,-2228,-1576,-768,-279,235
88853,2094,1081,1691,16556,-2128,-1576,-720,-164,214
88863,2095,1082,1690,16716,-2364,-1636,-736,-144,215
88873,2095,1066,1691,16612,-2324,-1564,-736,-101,271
88883,2094,1081,1691,16616,-2300,-1520,-752,7,299
88893,2095,1079,1689,16664,-2224,-1476,-736,87,291
88903,2095,1085,1691,16612,-2164,-1584,-736,110,294
88913,2099,1085,1691,16764,-2020,-1560,-752,71,326
88923,2095,1087,1690,16744,-1956,-1800,-752,-62,313
88933,2096,1081,1689,16692,-1952,-1584,-768,-155,259
88943,2099,1096,1691,16576,-2224,-1464,-720,-283,320
88953,2095,1086,1689,16672,-2196,-1512,-752,-315,340
88963,2095,1086,1690,16680,-2296,-1432,-736,-213,282
88973,2108,1085,1689,16608,-2320,-1100,-768,-61,250
88983,2093,1082,1691,16612,-2120,-1524,-736,21,265
88993,2086,1083,1689,16728,-2184,-1320,-768,39,366
89003,2094,1082,1689,16660,-2084,-1592,-736,92,291
89013,2095,1085,1689,16692,-2108,-1572,-720,16,218
89023,2094,1113,1691,16724,-2024,-1604,-720,-10,154
89033,2094,1093,1689,16680,-1908,-1508,-768,20,270
89043,2095,1087,1689,16540,-1952,-1752,-720,-151,395
89053,2095,1138,1689,16536,-2136,-1620,-784,-373,371
89063,2095,1092,1689,16572,-2160,-1404,-768,-391,222
89073,2093,1095,1688,16636,-2328,-1480,-736,-220,104
89083,2095,1099,1690,16688,-2344,-1372,-752,-68,133
89093,2096,1094,1693,16812,-2284,-1408,-768,-35,290
89103,2095,1092,1691,16628,-2124,-1332,-752,44,394
89113,2095,1084,1687,16468,-2140,-1412,-720,131,357
89123,2094,1095,1689,16584,-2180,-1400,-752,91,192
89133,2095,1095,1689,16624,-2000,-1576,-752,39,83
89143,2095,1099,1689,16684,-1888,-1488,-752,75,162
89153,2091,1099,1689,16808,-1908,-1604,-768,57,265
89163,2095,1093,1689,16640,-1848,-1400,-752,-37,374
89173,2094,1093,1689,16580,-1992,-1516,-752,-143,350
89183,2099,1093,1689,16528,-2048,-1684,-768,-237,248
89193,2094,1091,1688,16620,-2104,-1356,-736,-185,170
89203,2095,1094,1688,16692,-2048,-1308,-752,-44,137
89213,2094,1088,1687,16664,-2148,-1180,-736,106,199
89223,2095,1095,1687,16736,-2064,-1324,-736,202,239
89233,2095,1096,1687,16728,-1984,-1404,-752,213,209
89243,2094,1095,1690,16720,-1808,-1376,-752,230,185
89253,2095,1096,1687,16528,-1844,-1480,-736,150,169
89263,2095,1094,1723,16700,-1820,-1444,-784,37,138
89273,2095,1101,1687,16560,-1860,-1672,-720,-84,67
89283,2095,1097,1687,16688,-1896,-1556,-736,-102,76
89293,2085,1098,1679,16604,-1852,-1432,-768,-2,112
89303,2099,1096,1688,16800,-1896,-1680,-752,19,188
89313,2061,1094,1688,16768,-1888,-1488,-736,-15,245
89323,2093,1097,1687,16648,-1980,-1440,-768,-121,273
89333,2093,1093,1687,16564,-2060,-1432,-768,-158,167
89343,2090,1095,1688,16580,-2176,-1564,-784,-203,49
89353,2095,1101,1687,16576,-2340,-1416,-784,-138,-17
89363,2095,1102,1692,16604,-2252,-1552,-752,48,56
89373,2094,1097,1690,16644,-2256,-1616,-720,216,197
89383,2093,1099,1687,16712,-2124,-1508,-752,272,236
89393,2095,1101,1687,16572,-2120,-1408,-752,222,140
89403,2095,1101,1686,16708,-2012,-1360,-768,168,-55
89413,2094,1101,1687,16688,-2048,-1544,-704,119,-25
89423,2096,1105,1683,16688,-1936,-1456,-752,95,-1
89433,2095,1099,1687,16780,-1928,-1528,-736,47,79
89443,2094,1141,1687,16712,-1972,-1644,-736,49,174
89453,2093,1101,1687,16696,-1920,-1556,-720,133,235
89463,2095,1095,1687,16748,-1908,-1456,-768,108,249
89473,2093,1099,1687,16652,-1928,-1536,-768,-165,197
89483,2087,1097,1687,16548,-2096,-1620,-752,-398,146
89493,2092,1098,1687,16544,-2068,-1464,-752,-387,125
89503,2095,1101,1687,16772,-2204,-1432,-736,-238,97
89513,2095,1100,1685,16624,-2248,-1276,-768,-54,144
89523,2095,1103,1688,16644,-2220,-1416,-752,82,220
89533,2095,1101,1685,16680,-2168,-1424,-768,130,222
89543,2095,1098,1687,16564,-2068,-1636,-768,87,133
89553,2095,1098,1699,16752,-1984,-1640,-720,37,69
89563,2095,1085,1684,16692,-1980,-1612,-768,-38,79
89573,2093,1083,1687,16648,-2068,-1556,-720,-95,120
89583,2094,1099,1689,16536,-2112,-1420,-720,-98,120
89593,2094,1102,1687,16620,-2348,-1288,-752,-7,68
89603,2094,1101,1686,16608,-2132,-1560,-736,206,34
89613,2094,1112,1687,16760,-1956,-1476,-752,412,67
89623,2093,1111,1687,16720,-1848,-1536,-704,418,246
89633,2095,1111,1684,16744,-1756,-1664,-736,205,323
89643,2093,1111,1684,16616,-1664,-1696,-752,-14,265
89653,2095,1103,1685,16732,-1588,-1432,-800,-152,140
89663,2094,1102,1686,16644,-1828,-1608,-736,-224,23
89673,2095,1102,1685,16812,-1744,-1548,-752,-144,53
89683,2095,1111,1685,16732,-1716,-1444,-768,-32,132
89693,2067,1112,1688,16708,-1760,-1420,-736,80,216
89703,2104,1101,1685,16692,-1712,-1640,-752,126,180
89713,2095,1110,1685,16588,-1692,-1684,-752,54,150
89723,2093,1108,1685,16664,-1764,-1660,-768,-14,113
89733,2093,1114,1685,16668,-1808,-1688,-752,-187,106
89743,2095,1107,1686,16652,-1944,-1520,-752,-321,141
89753,2095,1107,1685,16732,-1940,-1632,-768,-327,150
89763,2094,1112,1684,16640,-2048,-1500,-736,-221,165
89773,2095,1114,1684,16656,-1972,-1384,-720,-25,178
89783,2095,1109,1685,16648,-2048,-1540,-768,74,194
89793,2095,1109,1685,16608,-2052,-1688,-736,75,193
89803,2095,1109,1684,16652,-1936,-1816,-768,-52,199
89813,2096,1109,1683,16700,-2040,-1752,-784,-166,75
89823,2093,1106,1685,16664,-2048,-1676,-752,-232,216
89833,2095,1103,1685,16760,-2124,-1676,-752,-264,203
89843,2093,1107,1685,16692,-2172,-1348,-752,-211,254
89853,2093,1109,1684,16676,-2004,-1464,-768,29,295
89863,2095,1106,1725,16676,-1904,-1468,-768,131,285
89873,2093,1107,1682,16636,-1900,-1636,-768,19,266
89883,2094,1113,1683,16716,-1840,-1656,-800,-85,206
89893,2093,1109,1684,16564,-1828,-1304,-752,-118,156
89903,2094,1105,1683,16616,-1780,-1460,-768,-41,189
89913,2093,1107,1682,16712,-1720,-1404,-768,-13,208
89923,2093,1111,1682,16716,-1872,-1656,-784,-80,262
89933,2095,1111,1683,16664,-1920,-1496,-784,-170,287
89943,2095,1109,1683,16504,-1812,-1432,-768,-149,211
89953,2095,1112,1683,16688,-1972,-1420,-752,-145,129
89963,2093,1043,1683,16640,-2008,-1420,-752,-168,158
89973,2093,1114,1682,16728,-2048,-1652,-768,-158,182
89983,2093,1113,1686,16744,-2000,-1532,-768,-55,228
89993,2093,1111,1684,16656,-1956,-1648,-720,-38,290
90003,2095,1111,1683,16604,-1920,-1636,-768,-115,248
90013,2090,1113,1683,16696,-1964,-1460,-768,-172,220
90023,2093,1111,1683,16648,-1876,-1548,-752,-239,202
90033,2096,1111,1683,16720,-1988,-1492,-768,-283,197
90043,2099,1113,1681,16616,-2008,-1492,-768,-176,232
90053,2095,1113,1681,16676,-2012,-1452,-752,-123,222
90063,2112,1113,1683,16676,-1968,-1600,-784,-25,205
90073,2093,1115,1681,16632,-1940,-1452,-768,103,217
90083,2093,1113,1661,16648,-1732,-1680,-752,67,249
90093,2094,1112,1677,16708,-1808,-1588,-768,-41,236
90103,2095,1113,1684,16728,-1824,-1476,-768,-176,216
90113,2094,1049,1681,16716,-1900,-1444,-752,-251,169
90123,2093,1115,1683,16720,-2068,-1376,-768,-204,142
90133,2095,1115,1683,16772,-1948,-1616,-768,-99,169
90143,2095,1113,1682,16704,-1956,-1484,-752,-30,238
90153,2092,1117,1681,16736,-2000,-1476,-784,-15,266
90163,2092,1115,1682,16796,-2040,-1412,-768,15,241
90173,2094,1111,1683,16540,-1904,-1604,-752,-27,191
90183,2095,1113,1678,16624,-1916,-1604,-752,-156,186
90193,2093,1112,1678,16692,-2048,-1620,-768,-293,230
90203,2093,1112,1678,16664,-2128,-1600,-800,-319,197
90213,2093,1114,1678,16576,-2096,-1424,-768,-202,183
90223,2093,1115,1677,16720,-2064,-1432,-768,-31,323
90233,2093,1113,1678,16624,-1980,-1628,-768,-7,112
90243,2094,1113,1677,16764,-2016,-1576,-784,-72,250
90253,2093,1109,1679,16616,-1976,-1628,-752,-177,264
90263,2093,1113,1681,16648,-2024,-1588,-752,-301,242
90273,2094,1114,1678,16644,-2048,-1560,-768,-232,156
90283,2107,1115,1677,16700,-2124,-1532,-752,-81,142
90293,2094,1119,1677,16760,-2140,-1548,-752,-24,158
90303,2092,1123,1678,16712,-2056,-1592,-784,81,293
90313,2093,1111,1678,16644,-1936,-1328,-736,102,353
90323,2092,1115,1681,16676,-1940,-1576,-768,-10,317
90333,2093,1121,1681,16672,-1908,-1548,-752,-210,194
90343,2095,1118,1677,16656,-2084,-1448,-768,-203,134
90353,2093,1121,1679,16668,-2108,-1520,-736,-64,129
90363,2095,1117,1678,16668,-2004,-1532,-752,119,189
90373,2094,1117,1677,16684,-1948,-1636,-784,150,290
90383,2093,1115,1681,16736,-1836,-1628,-768,35,329
90393,2093,1113,1679,16644,-1836,-1636,-752,-39,289
90403,2093,1114,1678,16648,-1904,-1568,-752,-236,208
90413,2093,1156,1678,16708,-1904,-1532,-768,-373,170
90423,2094,1115,1644,16672,-2020,-1516,-768,-302,129
90433,2094,1115,1675,16848,-2112,-1520,-768,-202,156
90443,2095,1117,1677,16720,-2224,-1488,-768,-107,236
90453,2094,1117,1679,16708,-1996,-1516,-800,28,276
90463,2093,1117,1677,16684,-1956,-1676,-752,112,276
90473,2093,1116,1677,16636,-1932,-1800,-768,-6,257
90483,2093,1116,1677,16620,-1992,-1528,-752,-131,220
90493,2093,1115,1675,16600,-2080,-1532,-752,-268,198
90503,2095,1113,1677,16656,-2124,-1668,-768,-313,221
90513,2093,1113,1675,16596,-2128,-1392,-752,-185,207
90523,2095,1117,1676,16672,-2004,-1228,-752,18,191
90533,2093,1115,1677,16832,-1948,-1408,-768,176,231
90543,2093,1068,1676,16544,-1844,-1720,-768,198,278
90553,2095,1115,1675,16644,-1812,-1752,-752,27,266
90563,2099,1123,1673,16640,-1844,-1608,-736,-143,225
90573,2093,1124,1676,16572,-1840,-1488,-768,-215,141
90583,2095,1111,1675,16656,-2004,-1548,-752,-197,116
90593,2071,1125,1677,16796,-2008,-1416,-784,-153,189
90603,2095,1123,1677,16720,-2052,-1428,-768,-14,264
90613,2095,1124,1677,16644,-2000,-1592,-784,98,279
90623,2091,1127,1677,16660,-1876,-1572,-768,100,199
90633,2095,1123,1658,16688,-1980,-1472,-768,2,154
90643,2093,1118,1675,16656,-1908,-1564,-768,-90,19
90653,2093,1117,1676,16648,-1840,-1612,-768,-133,134
90663,2095,1116,1675,16680,-2060,-1500,-768,-51,213
90673,2094,1115,1673,16584,-2088,-1688,-784,-37,215
90683,2093,1119,1673,16672,-1896,-1536,-800,-29,203
90693,2093,1119,1675,16632,-1976,-1528,-768,-42,215
90703,2093,1119,1675,16708,-1992,-1560,-784,-9,209
90713,2095,1119,1675,16720,-1968,-1448,-768,-43,231
90723,2093,1119,1675,16704,-1936,-1544,-768,-45,260
90733,2099,1118,1675,16572,-2044,-1492,-752,-97,242
90743,2093,1123,1675,16656,-2028,-1460,-784,-86,189
90753,2095,1115,1676,16656,-2068,-1488,-768,-40,213
90763,2093,1123,1675,16640,-2048,-1472,-784,51,220
90773,2092,1123,1675,16688,-1964,-1576,-784,123,236
90783,2093,1123,1674,16680,-1760,-1496,-768,115,285
90793,2092,1123,1674,16636,-1752,-1572,-768,117,276
90803,2092,1122,1675,16692,-1744,-1512,-768,79,198
90813,2095,1101,1674,16724,-1684,-1544,-736,-69,195
90823,2091,1127,1673,16744,-1756,-1324,-768,-85,205
90833,2093,1126,1673,16684,-1680,-1580,-784,38,245
90843,2092,1119,1674,16772,-1648,-1580,-784,33,290
90853,2093,1124,1674,16628,-1748,-1448,-784,-116,276
90863,2093,1124,1677,16624,-1656,-1400,-768,-181,263
90873,2095,1127,1674,16608,-1780,-1556,-752,-150,198
90883,2093,1131,1674,16780,-1824,-1516,-784,-245,220
90893,2098,1127,1674,16660,-1744,-1640,-752,-233,274
90903,2094,1118,1675,16688,-1848,-1612,-736,-182,249
90913,2093,1123,1704,16680,-1920,-1304,-768,-164,251
90923,2093,1124,1673,16700,-1848,-1452,-784,-113,242
90933,2095,1124,1681,16584,-1880,-1396,-768,-173,231
90943,2093,1126,1673,16652,-1796,-1468,-768,-238,178
90953,2087,1125,1668,16684,-1912,-1508,-784,-189,157
90963,2093,1124,1673,16608,-1928,-1480,-752,-183,212
90973,2093,1117,1675,16748,-2060,-1560,-768,-181,254
90983,2093,1125,1673,16672,-2000,-1612,-784,-206,288
90993,2093,1122,1673,16596,-1960,-1700,-784,-203,193
91003,2095,1123,1675,16636,-2004,-1476,-768,-94,172
91013,2093,1117,1673,16776,-1896,-1576,-768,-27,162
91023,2093,1123,1674,16716,-1836,-1468,-768,-56,204
91033,2093,1117,1673,16648,-2008,-1432,-768,-132,264
91043,2093,1123,1673,16636,-1980,-1420,-800,-166,233
91053,2093,1126,1673,16656,-1920,-1432,-768,-113,168
91063,2094,1127,1671,16664,-1952,-1700,-768,-63,139
91073,2095,1130,1672,16776,-1904,-1556,-752,-78,148
91083,2095,1129,1671,16712,-1696,-1432,-784,-42,263
91093,2094,1127,1673,16704,-1684,-1628,-736,-102,332
91103,2095,1183,1675,16564,-1732,-1524,-752,-249,262
91113,2094,1126,1673,16736,-1832,-1332,-752,-306,159
91123,2093,1129,1671,16700,-2020,-1488,-768,-253,101
91133,2093,1125,1673,16616,-2012,-1408,-768,-146,92
91143,2095,1127,1673,16768,-1932,-1344,-784,-51,178
91153,2095,1125,1671,16800,-1976,-1332,-736,97,263
91163,2094,1128,1674,16644,-1920,-1672,-768,137,236
91173,2095,1131,1672,16620,-1880,-1564,-784,86,178
91183,2093,1130,1673,16800,-1820,-1692,-784,-41,110
91193,2093,1127,1671,16724,-1828,-1520,-784,-157,88
91203,2094,1125,1671,16724,-1848,-1556,-784,-191,135
91213,2093,1127,1671,16652,-2012,-1436,-768,-128,151
91223,2093,1125,1671,16696,-1928,-1468,-784,40,141
91233,2094,1127,1661,16672,-1832,-1396,-784,180,199
91243,2093,1125,1671,16676,-1888,-1496,-800,131,206
91253,2091,1127,1672,16664,-1848,-1544,-752,-21,182
91263,2095,1126,1671,16584,-1880,-1452,-752,-145,136
91273,2093,1125,1672,16632,-1916,-1328,-768,-35,83
91283,2091,1127,1671,16776,-1860,-1516,-768,121,73
91293,2093,1129,1672,16680,-1888,-1412,-784,132,117
91303,2078,1127,1661,16776,-1828,-1480,-752,71,194
91313,2093,1126,1646,16636,-1704,-1388,-768,95,200
91323,2093,1124,1671,16552,-1808,-1592,-784,51,143
91333,2093,1127,1672,16604,-1868,-1580,-768,-37,83
91343,2092,1125,1669,16664,-1908,-1404,-800,-101,113
91353,2093,1124,1671,16720,-1812,-1416,-784,-40,93
91363,2095,1123,1669,16736,-2008,-1600,-768,30,128
91373,2103,1127,1671,16884,-1848,-1480,-800,86,170
91383,2093,1133,1671,16800,-1728,-1260,-784,184,186
91393,2093,1129,1671,16644,-1756,-1468,-768,167,185
91403,2093,1125,1671,16776,-1580,-1704,-768,18,137
91413,2091,1129,1669,16776,-1584,-1544,-784,-113,115
91423,2085,1133,1671,16748,-1648,-1584,-768,-170,99
91433,2091,1135,1669,16660,-1688,-1544,-768,-199,125
91443,2094,1135,1671,16708,-1716,-1504,-784,-174,202
91453,2093,1133,1679,16744,-1768,-1560,-752,-179,138
91463,2093,1129,1669,16572,-1904,-1732,-768,-188,152
91473,2095,1133,1671,16620,-1904,-1456,-784,-138,127
91483,2093,1131,1669,16724,-1980,-1472,-784,-65,105
91493,2093,1126,1671,16784,-1936,-1504,-800,-22,156
91503,2093,1109,1669,16632,-1848,-1644,-800,-30,205
91513,2093,1125,1671,16708,-1976,-1656,-768,-76,253
91523,2093,1126,1669,16616,-1880,-1628,-800,-136,198
91533,2093,1127,1668,16764,-1884,-1496,-800,-46,134
91543,2093,1125,1671,16740,-1800,-1504,-784,6,144
91553,2093,1125,1671,16692,-1760,-1440,-784,-2,226
91563,2093,1124,1669,16752,-1712,-1652,-784,-96,263
91573,2095,1129,1669,16712,-1680,-1432,-800,-118,224
91583,2094,1127,1676,16716,-1684,-1420,-784,-100,205
91593,2093,1127,1670,16808,-1696,-1588,-784,-172,142
91603,2095,1128,1669,16748,-1724,-1576,-784,-199,166
91613,2093,1132,1663,16760,-1900,-1488,-800,-164,175
91623,2093,1131,1669,16708,-1704,-1512,-800,-100,219
91633,2091,1125,1670,16668,-1728,-1400,-800,-54,254
91643,2092,1130,1669,16692,-1644,-1656,-768,-3,260
91653,2057,1129,1662,16596,-1612,-1468,-768,-39,232
91663,2093,1129,1669,16712,-1656,-1552,-784,-150,159
91673,2093,1130,1689,16688,-1592,-1552,-784,-160,166
91683,2093,1129,1663,16792,-1644,-1500,-768,-173,191
91693,2093,1129,1669,16732,-1744,-1472,-784,-123,216
91703,2094,1129,1669,16788,-1712,-1444,-784,-93,247
91713,2093,1129,1669,16760,-1676,-1500,-768,-71,237
91723,2093,1131,1669,16664,-1672,-1548,-800,-153,216
91733,2091,1131,1673,16704,-1772,-1524,-800,-185,221
91743,2092,1138,1669,16660,-1776,-1528,-800,-158,183
91753,2095,1134,1667,16736,-1804,-1572,-768,-92,233
91763,2093,1133,1662,16716,-1756,-1404,-784,-124,232
91773,2093,1132,1662,16748,-1704,-1440,-800,-126,292
91783,2093,1137,1663,16788,-1748,-1504,-784,-138,253
91793,2093,1129,1662,16656,-1744,-1596,-784,-203,189
91803,2092,1141,1661,16676,-1668,-1316,-800,-165,146
91813,2093,1133,1662,16852,-1668,-1508,-784,-88,201
91823,2093,1128,1661,16656,-1676,-1636,-752,-105,246
91833,2093,1117,1662,16716,-1680,-1560,-800,-163,268
91843,2092,1131,1663,16624,-1572,-1396,-800,-207,232
91853,2093,1131,1663,16700,-1780,-1596,-784,-212,163
91863,2093,1129,1663,16644,-1648,-1612,-800,-252,60
91873,2091,1129,1663,16644,-1804,-1536,-768,-191,122
91883,2094,1133,1669,16740,-1928,-1336,-784,-100,231
91893,2093,1132,1663,16584,-1940,-1476,-816,-131,270
91903,2093,1132,1661,16680,-1840,-1432,-768,-103,211
91913,2093,1131,1661,16640,-1900,-1528,-784,-63,193
91923,2091,1129,1661,16692,-1984,-1680,-752,-90,178
91933,2093,1132,1660,16776,-1824,-1704,-800,-120,183
91943,2093,1132,1662,16652,-1796,-1452,-816,-82,239
91953,2092,1127,1662,16592,-1872,-1548,-800,-51,268
91963,2093,1128,1663,16608,-1884,-1604,-800,-88,239
91973,2093,1131,1662,16560,-1844,-1520,-768,-113,205
91983,2093,1129,1661,16648,-2040,-1632,-768,-141,217
91993,2093,1118,1663,16512,-2344,-1892,-768,-132,250
92003,2091,1113,1669,16396,-2992,-2200,-816,-198,183
92013,2095,1108,1675,16196,-3928,-2416,-784,-253,195
92023,2119,1087,1674,16192,-4572,-1896,-800,15,231
92033,2095,1007,1682,16252,-5592,-2100,-784,360,224
92043,2094,1005,1684,15976,-6548,-2492,-784,416,350
92053,2093,1007,1673,15940,-6824,-1524,-768,1071,794
92063,2091,1067,1655,16080,-5236,-800,-768,2187,1293
92073,2093,1053,1672,16456,-6028,-992,-816,2697,1284
92083,2093,999,1663,16092,-6180,-1608,-832,2256,1147
92093,2095,973,1657,16200,-5924,-1296,-736,1242,899
92103,2086,1044,1657,16296,-6332,-1320,-800,230,676
92113,2099,1097,1658,16348,-6568,-1064,-752,-308,556
92123,2092,1084,1660,16300,-7156,-1868,-784,-350,453
92133,2092,1163,1673,16180,-7852,-2392,-816,-256,359
92143,2091,1112,1662,16280,-8456,-2724,-752,-191,541
92153,2045,1431,1660,16488,-8652,-1960,-768,-643,1239
92163,2089,1516,1659,16520,-7612,-624,-784,-498,2211
92173,2088,1373,1647,17220,-5436,480,-832,-188,2707
92183,2089,1070,1643,17176,-3504,-36,-768,-488,2552
92193,2087,1106,1651,15492,64,2052,-816,-1166,3567
92203,2099,864,1647,14212,3088,2236,-800,-873,5472
92213,2093,940,1668,14252,3144,-3248,-800,-986,3800
92223,2091,792,1663,12412,2172,-6580,-784,-2887,176
92233,2087,1017,1677,9132,64,-3584,-816,-5625,1161
92243,2091,1122,1670,7448,1208,4604,-800,-5277,6658
92253,2103,1499,1637,9468,4564,8432,-784,2974,9800
92263,2101,1541,1625,14056,8172,2732,-784,15039,1430
92273,2092,1388,1646,18048,8228,-4696,-800,18957,-12269
92283,2089,1213,1690,16572,5956,-12888,-768,5524,-14866
92293,2093,1160,1677,17632,6764,-6728,-784,-13868,-6510
92303,2099,1140,1659,18952,8636,4584,-800,-16367,1649
92313,2092,1135,1659,20848,8496,6016,-768,-3171,1398
92323,2091,1132,1705,18280,6880,-272,-816,10790,-955
92333,2093,1127,1719,17164,6156,-5364,-768,10408,2674
92343,2093,1131,1725,16820,11512,-3152,-784,4039,7513
92353,2093,1132,1772,16584,15996,2384,-784,7049,8031
92363,2091,1131,1810,17248,18408,1844,-800,14456,4249
92373,2087,1129,1645,17628,19548,-2364,-768,15928,1459
92383,2079,1129,1615,18940,22668,-5152,-800,13185,-470
92393,2065,1129,1573,23508,27208,-3372,-800,13550,-3086
92403,2085,1126,1527,19044,31780,-7368,-800,11993,-4872
92413,2095,1126,1619,25232,29360,-3004,-784,6357,-2084
92423,2108,1126,1652,26388,26360,-1168,-816,3133,1209
92433,2108,1129,1644,27712,21372,-1568,-832,2764,1434
92443,2117,1131,1695,30660,16580,-884,-784,2353,-1219
92453,2106,1132,1631,32767,6552,-4720,-816,-5236,-9285
92463,2083,1134,1510,32767,-1292,8736,-800,-17540,-14210
92473,2101,1127,1477,32767,-6444,9960,-768,-19847,-6696
92483,2059,1133,1513,27956,-4340,7152,-784,-13120,4907
92493,2015,1109,1696,19080,784,3860,-816,-1423,13499
92503,2108,1069,1781,11080,2264,-6904,-784,1138,20153
92513,2131,700,1641,4836,648,-14580,-800,-10333,26423
92523,2120,763,1549,7504,-11072,-15944,-784,-31126,29648
92533,2110,1381,1586,1716,-14848,-12224,-784,-32768,24418
92543,2095,1576,1627,6180,-19784,-3724,-816,-32768,10364
92553,2085,1403,1641,-4180,-20444,5776,-800,-29941,-3766
92563,2105,1098,1658,-1020,-19160,11160,-768,4140,-9449
92573,2098,1055,1740,6260,-15964,9296,-768,21294,-6572
92583,2084,1196,1769,8404,-5192,2576,-784,26934,-5283
92593,2091,1005,1727,5872,1380,-1696,-800,27957,-2305
92603,2085,861,1727,4316,3736,-11648,-752,20835,3870
92613,2087,1021,1733,5364,5268,-13052,-784,6951,8504
92623,2090,1199,1699,3016,3660,-7496,-768,-6356,12446
92633,2095,1319,1663,212,3144,-1680,-784,-12318,12597
92643,2087,1315,1684,-2828,1012,840,-768,-11985,10899
92653,2094,1135,1686,-3516,-1052,2240,-800,-8257,7483
92663,2087,999,1669,-3632,-4368,2464,-768,-3951,3213
92673,2096,1031,1660,-2572,-7216,1576,-768,-1684,-1944
92683,2095,987,1626,-1164,-9080,1112,-800,-1459,-5304
92693,2101,1021,1636,396,-8960,1612,-784,-590,-6198
92703,2102,1508,1759,3328,-7120,3172,-816,3897,-5424
92713,2058,692,1637,5312,-4128,8628,-800,12780,-1377
92723,2119,430,1651,12332,4408,1152,-784,18247,-2838
92733,2215,2205,2023,7528,11200,2916,-752,31429,-8077
92743,2159,0,1595,21624,6296,-5480,-800,30781,-7224
92753,1963,1848,1687,32767,23264,-20960,-832,10789,-32768
92763,1909,1944,1545,14804,4712,-29100,-800,-10895,-32768
92773,2012,306,1341,30004,-4312,-12332,-832,-32768,-21375
92783,2154,715,1591,27548,-7808,-3372,-784,-32768,-2743
92793,2207,669,1768,18664,1500,-8600,-784,-20325,4298
92803,2101,627,1639,20484,-1080,-10196,-800,20754,-7002
92813,2155,600,1735,32767,-32768,-19112,-784,26095,-18919
92823,2011,585,1837,32767,-32768,32767,-816,-16586,-32768
92833,2103,582,1321,32767,-20920,29036,-832,5836,-7597
92843,2061,654,1533,29352,15672,4948,-800,32767,32767
92853,2068,667,1881,11168,29116,-10328,-784,32767,32767
92863,2117,679,1797,18216,32767,3372,-768,32767,32767
92873,2079,691,1763,3940,32767,-31416,-800,32767,32767
92883,2092,717,1707,16220,32767,-2336,-816,-11899,32767
92893,2105,694,1762,-26468,32767,-21292,-784,-32768,22155
92903,2101,703,1817,-6616,26752,-13984,-784,-32768,-8560
92913,2096,698,1788,8608,1408,4748,-816,-32768,-32768
92923,2091,686,1594,16316,-15232,18224,-800,-32768,-32768
92933,2109,699,1571,27368,-29832,32767,-832,-32768,-32768
92943,2103,716,1626,24100,-21864,16552,-816,-32768,-32768
92953,2091,730,1654,20892,-15216,-8064,-800,-212,-32768
92963,2111,739,1709,24024,-16276,-14800,-800,27384,-18237
92973,2099,744,1711,29516,-10244,11148,-816,32767,5545
92983,2086,751,1695,24340,-6164,652,-800,27545,27776
92993,2093,761,1701,15560,-80,-6544,-816,17687,32767
93003,2094,782,1701,11052,2036,-7476,-816,11780,32767
93013,2099,773,1716,8320,192,-9708,-832,6719,27165
93023,2090,681,1708,9756,-2456,-7804,-832,-702,15000
93033,2100,819,1688,11380,-4372,-5040,-816,-11205,1658
93043,2099,766,1659,11324,-5900,5776,-768,-18093,-9553
93053,2095,740,1661,13752,-6024,4240,-800,-18828,-16723
93063,2083,1259,1678,15408,-4740,1884,-816,-14703,-19438
93073,2116,1123,1692,18288,-7084,1648,-816,-6849,-18085
93083,2095,1037,1702,21580,-6764,3256,-800,2591,-14066
93093,2095,1055,1703,22316,-6224,2988,-816,10784,-4944
93103,2094,1060,1703,20776,-3780,-812,-784,14083,3373
93113,2095,1054,1699,19040,-1192,-3832,-768,12711,8568
93123,2094,1063,1704,16856,-128,-5400,-800,8607,9430
93133,2091,1064,1699,15348,148,-6088,-800,3692,6847
93143,2091,1063,1693,14376,40,-5000,-832,-807,2874
93153,2095,1064,1685,14520,-280,-4052,-816,-4155,-1260
93163,2095,1061,1685,15456,-320,-2676,-800,-5421,-3424
93173,2095,1064,1686,17004,-944,-976,-800,-5257,-3039
93183,2093,1061,1690,17816,-1740,-32,-784,-4125,-1196
93193,2109,1062,1693,17940,-2912,1024,-816,-2273,1241
93203,2129,1060,1689,17324,-3104,1268,-800,-35,2661
93213,2088,1063,1689,16372,-3108,816,-784,2385,2672
93223,2095,1063,1686,15720,-2332,-392,-816,4205,1175
93233,2094,1063,1683,15684,-1312,-976,-832,4937,-484
93243,2094,1065,1687,16492,-208,-1444,-800,4333,-1621
93253,2094,1063,1683,17060,672,-1536,-800,2519,-1756
93263,2093,1065,1687,17576,1280,-1824,-800,155,-1231
93273,2093,1065,1687,17540,1128,-2116,-816,-1957,-393
93283,2093,1068,1691,17324,528,-2512,-768,-3507,-48
93293,2085,1067,1695,16852,-512,-2116,-768,-3931,-123
93303,2095,1071,1685,16664,-1012,-1684,-816,-2956,-377
93313,2103,1108,1681,16836,-736,-1692,-816,-1518,-333
93323,2093,1067,1683,16820,-472,-1824,-800,-432,-35
93333,2093,1077,1683,17088,152,-1824,-784,491,613
93343,2093,1079,1683,17004,608,-1100,-784,1177,1126
93353,2099,1086,1684,17020,800,-728,-800,1116,1419
93363,2095,1103,1683,16816,800,-936,-800,212,1406
93373,2095,1079,1681,16480,420,-904,-800,-1117,900
93383,2094,1083,1684,16408,-396,-944,-800,-2377,87
93393,2095,1079,1688,16660,-1560,-284,-800,-3287,-597
93403,2095,1083,1701,16504,-2496,-88,-800,-3417,-1016
93413,2103,1079,1677,16612,-3324,140,-832,-2549,-1228
93423,2095,1067,1679,16676,-3476,-432,-784,-798,-1095
93433,2094,1053,1678,16724,-3132,-828,-784,1348,-1079
93443,2095,1076,1678,16768,-2556,-1584,-800,3098,-699
93453,2093,1079,1683,16848,-1660,-2156,-784,3705,-105
93463,2093,1085,1683,16744,-900,-2716,-784,3159,404
93473,2093,1079,1677,16708,-476,-2496,-800,1900,687
93483,2093,1081,1683,16512,-452,-2468,-800,333,561
93493,2093,1085,1683,16468,-848,-2072,-768,-1001,215
93503,2095,1101,1678,16516,-1460,-1476,-800,-1773,-135
93513,2093,1086,1682,16700,-2148,-1292,-800,-2121,-176
93523,2092,1079,1681,16876,-2596,-856,-800,-1771,-278
93533,2093,1066,1683,16860,-2976,-1024,-800,-1058,-7
93543,2093,1065,1683,16884,-3052,-1056,-784,-278,300
93553,2095,1047,1687,16728,-3200,-1260,-816,462,519
93563,2093,1053,1683,16440,-3136,-1688,-800,949,460
93573,2093,1077,1679,16616,-2624,-1976,-784,950,175
93583,2110,1079,1675,16820,-1992,-1920,-816,902,51
93593,2093,1075,1683,16812,-1608,-2232,-832,782,281
93603,2094,1086,1677,16840,-1424,-2276,-800,415,501
93613,2093,1095,1676,16932,-1356,-2044,-800,-108,906
93623,2093,1085,1661,16708,-1444,-1344,-768,-502,1155
93633,2093,1086,1677,16512,-1680,-1160,-800,-528,1001
93643,2093,1094,1677,16492,-1820,-1020,-800,-275,555
93653,2095,1092,1675,16664,-2116,-736,-800,119,146
93663,2094,1079,1675,16924,-1948,-932,-816,540,248
93673,2093,1071,1677,16840,-1776,-1160,-800,874,480
93683,2095,1069,1676,16804,-1428,-1296,-768,1089,628
93693,2093,1095,1675,16744,-1416,-1628,-816,1103,582
93703,2092,1086,1673,16656,-1100,-1824,-784,890,453
93713,2093,1084,1674,16668,-976,-1732,-800,623,391
93723,2095,1086,1673,16760,-608,-1608,-816,597,572
93733,2095,1082,1675,16836,-456,-2120,-784,461,679
93743,2093,1097,1677,16756,-564,-2284,-800,348,647
93753,2093,1096,1675,16932,-552,-1676,-768,277,814
93763,2093,1084,1675,16852,-164,-1496,-800,382,1235
93773,2092,1095,1675,16856,-56,-1480,-832,446,1504
93783,2093,1094,1683,16836,12,-1700,-800,-6,1552
93793,2093,1097,1673,16800,-72,-1340,-784,-693,1425
93803,2093,1101,1672,16708,-456,-1072,-784,-1348,1423
93813,2093,1067,1673,16740,-460,-528,-784,-1392,1328
93823,2093,1095,1669,16556,-460,-304,-832,-675,1215
93833,2092,1098,1673,16504,-748,-660,-752,-87,1006
93843,2093,1093,1672,16620,-924,-592,-768,-31,836
93853,2093,1115,1661,16844,-1260,-212,-784,-80,672
93863,2075,1077,1669,16724,-1384,-564,-800,-149,622
93873,2093,1067,1670,16768,-1072,-924,-800,176,665
93883,2093,1099,1670,16816,-1028,-928,-816,511,680
93893,2093,1115,1663,16760,-1064,-612,-800,618,836
93903,2095,1093,1671,16816,-1128,-840,-832,279,841
93913,2092,1095,1673,16808,-1388,-1200,-752,-527,412
93923,2093,1096,1672,16792,-1584,-456,-800,-1048,469
93933,2094,1122,1671,16692,-1828,-132,-800,-752,496
93943,2094,1085,1673,16664,-2088,-348,-784,-241,413
93953,2093,1092,1672,16704,-2120,-660,-784,35,272
93963,2091,1092,1671,16612,-1980,-760,-768,307,126
93973,2093,1097,1670,16812,-1884,-664,-784,477,122
93983,2093,1101,1671,16836,-1960,-796,-784,270,199
93993,2091,1099,1670,16848,-1816,-472,-800,68,270
94003,2094,1111,1669,16696,-1896,-376,-800,114,147
94013,2094,1082,1663,16644,-2036,-1036,-800,-83,45
94023,2092,1113,1670,16756,-2268,-1080,-768,-417,-37
94033,2092,1097,1670,16740,-2508,-640,-768,-322,-163
94043,2093,1123,1669,16828,-2668,-700,-752,129,-261
94053,2092,1091,1668,16708,-2232,-1044,-800,577,-96
94063,2093,1083,1663,16824,-1640,-1336,-816,1062,74
94073,2090,1117,1669,16916,-1472,-1160,-784,903,164
94083,2091,1105,1671,16836,-1480,-1000,-800,-2,389
94093,2092,1085,1671,16636,-1920,-980,-784,-949,514
94103,2093,1093,1671,16540,-2164,-292,-784,-1219,286
94113,2092,1093,1660,16632,-2188,-68,-768,-583,-58
94123,2093,1099,1659,16700,-2152,-120,-800,352,-320
94133,2093,1100,1661,16836,-1616,-556,-784,1147,-252
94143,2091,1107,1663,16916,-1168,-880,-768,1387,-68
94153,2093,1103,1670,16856,-632,-1116,-768,1010,159
94163,2089,1111,1670,16660,-600,-1468,-784,255,250
94173,2092,1107,1661,16476,-900,-1048,-800,-544,79
94183,2092,1103,1660,16576,-1184,-984,-816,-1187,-262
94193,2093,1098,1675,16632,-1484,-852,-784,-1381,-577
94203,2093,1087,1657,16764,-1576,-708,-784,-883,-573
94213,2092,1087,1659,16984,-1492,-672,-816,-1,-332
94223,2091,1110,1661,16924,-1508,-644,-784,561,33
94233,2092,1109,1661,16880,-1276,-700,-768,507,344
94243,2092,1097,1661,16736,-1076,-924,-784,134,236
94253,2093,1107,1661,16476,-900,-804,-784,-152,-47
94263,2095,1099,1660,16620,-1052,-772,-800,-282,-367
94273,2093,1093,1659,16796,-1012,-972,-768,-341,-546
94283,2093,1099,1661,16944,-1216,-1336,-816,-492,-554
94293,2091,1118,1659,16952,-1424,-1148,-768,-529,-249
94303,2092,1096,1659,16844,-1408,-856,-768,-362,130
94313,2093,1129,1661,16652,-1336,-1072,-784,-180,190
94323,2096,1112,1660,16624,-1416,-1068,-784,-20,-134
94333,2095,1111,1661,16528,-1128,-828,-800,292,-310
94343,2091,1108,1659,16704,-920,-912,-784,410,-311
94353,2092,1109,1661,16856,-652,-1304,-768,201,-386
94363,2092,1113,1658,16924,-824,-1200,-768,-276,-396
94373,2091,1112,1656,16856,-868,-1244,-784,-735,-287
94383,2091,1103,1659,16680,-1152,-1144,-800,-639,-317
94393,2079,1109,1657,16672,-1292,-1196,-768,-415,-390
94403,2091,1101,1657,16728,-1384,-1248,-816,-233,-333
94413,2091,1107,1657,16744,-1440,-1296,-768,-2,-349
94423,2092,1109,1658,16740,-1280,-1060,-800,202,-202
94433,2091,1109,1655,16812,-1448,-1252,-784,92,-150
94443,2092,1108,1659,16744,-1336,-1288,-752,-48,-146
94453,2093,1101,1661,16596,-1480,-1380,-800,-139,-206
94463,2091,1111,1660,16672,-1660,-1604,-784,-354,-316
94473,2093,1111,1662,16724,-1648,-1392,-800,-323,-394
94483,2095,1111,1657,16756,-1640,-1232,-768,101,-380
94493,2091,1110,1657,16848,-1244,-1172,-768,619,-327
94503,2093,1117,1658,17060,-1148,-1068,-752,867,-215
94513,2092,1115,1657,16924,-940,-1528,-768,829,-37
94523,2093,1115,1659,16740,-664,-1428,-784,815,39
94533,2092,1116,1657,16616,-536,-1744,-800,621,88
94543,2092,1092,1656,16656,-548,-1740,-832,94,27
94553,2093,1112,1653,16620,-728,-1384,-784,-326,53
94563,2103,1107,1656,16632,-768,-1272,-816,-473,61
94573,2092,1115,1655,16812,-736,-1308,-800,-256,-36
94583,2092,1113,1656,16800,-756,-1040,-784,-25,31
94593,2092,1111,1655,16980,-532,-1036,-784,189,128
94603,2091,1111,1654,16836,-256,-1196,-800,405,152
94613,2092,1117,1652,16880,76,-1356,-736,388,60
94623,2092,1115,1655,16748,32,-1120,-784,134,53
94633,2093,1115,1655,16672,52,-1460,-768,-231,-22
94643,2100,1119,1655,16664,-264,-1356,-768,-508,-221
94653,2093,1115,1654,16748,-416,-1232,-784,-514,-322
94663,2091,1141,1655,16812,-748,-1312,-784,-369,-299
94673,2093,1118,1657,16672,-788,-1368,-768,-203,-36
94683,2092,1114,1655,16744,-948,-1372,-784,-135,167
94693,2091,1113,1655,16720,-928,-1420,-784,-89,60
94703,2091,1115,1653,16664,-832,-1352,-800,61,-126
94713,2091,1116,1653,16668,-880,-1400,-768,56,-180
94723,2091,1115,1653,16780,-820,-1536,-800,-8,-60
94733,2093,1115,1655,16760,-832,-1368,-800,-207,23
94743,2090,1115,1657,16708,-920,-1700,-768,-336,-41
94753,2092,1115,1655,16676,-928,-1500,-768,-253,-46
94763,2093,1114,1651,16792,-952,-1308,-800,-37,-54
94773,2092,1113,1652,16656,-848,-1388,-784,95,-68
94783,2091,1123,1653,16892,-720,-1624,-752,29,62
94793,2093,1115,1653,16864,-644,-1436,-768,-253,256
94803,2091,1115,1655,16804,-600,-1448,-784,-524,298
94813,2090,1117,1654,16724,-800,-1520,-752,-623,156
94823,2091,1124,1652,16740,-928,-1484,-768,-643,-50
94833,2091,1117,1653,16848,-756,-1372,-784,-526,-91
94843,2091,1125,1651,16844,-932,-1348,-784,-175,7
94853,2092,1119,1651,16932,-728,-1544,-736,84,132
94863,2091,1123,1653,16768,-808,-1248,-800,250,147
94873,2091,1107,1653,16788,-748,-1072,-784,177,166
94883,2091,1113,1653,16852,-604,-1248,-736,131,63
94893,2091,1119,1651,16652,-604,-1568,-768,-85,-138
94903,2091,1123,1652,16672,-656,-1256,-784,-366,-198
94913,2092,1119,1652,16856,-896,-1540,-784,-491,-130
94923,2091,1124,1651,16716,-1140,-1532,-800,-478,-140
94933,2092,1123,1651,16720,-1424,-1372,-784,-192,-139
94943,2091,1117,1653,16836,-1420,-1280,-768,150,-69
94953,2089,1119,1653,16700,-1188,-1496,-768,339,-2
94963,2092,1124,1650,16720,-1236,-1748,-800,169,89
94973,2091,1123,1645,16672,-1236,-1596,-768,-79,81
94983,2091,1118,1641,16744,-1268,-1620,-768,-74,-54
94993,2091,1117,1652,16916,-1140,-1760,-768,174,-204
95003,2091,1125,1651,17012,-944,-1784,-768,425,-30
95013,2091,1119,1649,16912,-944,-1660,-768,380,329
95023,2092,1118,1651,16760,-904,-1532,-752,188,470
95033,2090,1123,1656,16524,-940,-1708,-768,-7,240
95043,2089,1117,1651,16644,-920,-1628,-768,-262,-3
95053,2091,1116,1651,16616,-924,-1524,-752,-301,-132
95063,2091,1123,1647,16828,-1044,-1492,-752,-112,-64
95073,2091,1114,1647,16840,-988,-1500,-736,48,172
95083,2092,1123,1651,16864,-856,-1552,-752,143,322
95093,2092,1146,1647,16816,-740,-1484,-752,125,309
95103,2101,1130,1646,16796,-844,-1656,-768,91,100
95113,2093,1125,1647,16724,-756,-1716,-768,22,-18
95123,2092,1123,1645,16944,-756,-1636,-768,51,52
95133,2092,1125,1647,16864,-668,-1652,-768,118,218
95143,2091,1125,1647,16824,-792,-1596,-800,169,375
95153,2092,1130,1651,16768,-852,-1596,-784,-19,352
95163,2091,1130,1645,16736,-932,-1464,-784,-229,208
95173,2092,1131,1647,16704,-1136,-1516,-784,-377,110
95183,2091,1128,1645,16692,-1200,-1460,-768,-312,51
95193,2091,1125,1645,16772,-1136,-1436,-784,-64,85
95203,2131,1123,1643,16824,-1252,-1592,-768,-29,187
95213,2095,1125,1646,16820,-1196,-1500,-768,-109,326
95223,2091,1099,1645,16768,-1172,-1460,-800,-114,342
95233,2092,1117,1647,16712,-1272,-1720,-768,-84,258
95243,2091,1125,1645,16692,-1288,-1592,-784,-179,138
95253,2091,1123,1644,16880,-1220,-1600,-768,-201,130
95263,2091,1127,1634,16876,-1004,-1384,-736,-131,138
95273,2091,1117,1647,16844,-1040,-1616,-752,0,268
95283,2090,1125,1646,16768,-1120,-1608,-768,18,426
95293,2096,1125,1646,16732,-1068,-1440,-768,-57,429
95303,2092,1125,1645,16612,-1096,-1420,-784,-60,293
95313,2091,1123,1644,16644,-1104,-1576,-752,-189,180
95323,2091,1117,1644,16708,-1148,-1524,-800,-401,168
95333,2091,1123,1646,16756,-1332,-1340,-784,-383,176
95343,2092,1129,1643,16824,-1192,-1396,-784,-239,193
95353,2089,1143,1645,16864,-1080,-1432,-768,6,289
95363,2090,1129,1644,16892,-1224,-1536,-768,2,296
95373,2091,1118,1644,16744,-1228,-1380,-736,-5,300
95383,2091,1131,1644,16616,-1252,-1604,-736,-96,336
95393,2091,1132,1643,16708,-972,-1616,-752,-34,179
95403,2091,1125,1645,16856,-960,-1568,-752,88,122
95413,2091,1125,1644,16832,-920,-1540,-768,-78,191
95423,2090,1119,1643,16772,-916,-1664,-752,-269,338
95433,2069,1126,1643,16668,-976,-1688,-752,-308,394
95443,2091,1128,1643,16644,-936,-1516,-800,-259,221
95453,2091,1127,1641,16776,-988,-1396,-752,-263,194
95463,2092,1129,1644,16968,-932,-1608,-752,-370,252
95473,2089,1128,1641,16880,-912,-1412,-800,-477,320
95483,2091,1126,1641,16772,-864,-1412,-800,-424,351
95493,2089,1141,1642,16816,-884,-1368,-784,-261,324
95503,2093,1133,1643,16776,-948,-1132,-768,-138,273
95513,2091,1140,1643,16720,-952,-1324,-768,-59,278
95523,2091,1131,1643,16720,-928,-1500,-752,-122,241
95533,2091,1127,1643,16696,-916,-1492,-752,-211,177
95543,2098,1123,1643,16660,-944,-1432,-800,-170,43
95553,2091,1123,1640,16672,-1116,-1492,-784,-206,195
95563,2087,1117,1643,16732,-996,-1632,-784,-208,192
95573,2091,1125,1642,16748,-944,-1784,-768,-191,179
95583,2091,1142,1643,16824,-976,-1372,-736,-251,244
95593,2089,1144,1639,16852,-904,-1440,-768,-246,331
95603,2091,1131,1642,16704,-1080,-1444,-768,-200,260
95613,2090,1132,1641,16704,-1148,-1616,-768,-308,181
95623,2089,1129,1641,16792,-1116,-1164,-752,-225,196
95633,2090,1125,1641,16800,-1060,-1500,-784,-24,200
95643,2091,1127,1641,16860,-1108,-1612,-768,-52,156
95653,2091,1129,1642,16788,-1040,-1440,-752,-89,289
95663,2089,1133,1641,16852,-1012,-1588,-752,-140,370
95673,2091,1129,1641,16700,-972,-1548,-736,-135,344
95683,2089,1133,1639,16668,-1180,-1468,-784,-219,298
95693,2090,1127,1641,16628,-1220,-1240,-768,-297,242
95703,2090,1132,1641,16672,-1144,-1304,-768,-139,168
95713,2091,1135,1677,16824,-1080,-1348,-752,-17,161
95723,2091,1150,1641,16824,-1088,-1620,-736,4,192
95733,2091,1149,1642,16844,-1064,-1420,-736,-2,230
95743,2089,1144,1637,16708,-1024,-1452,-784,80,269
95753,2090,1142,1641,16700,-940,-1516,-752,192,251
95763,2089,1142,1639,16604,-828,-1420,-736,157,178
95773,2090,1135,1639,16676,-984,-1456,-752,-66,114
95783,2089,1134,1638,16700,-980,-1388,-752,-183,164
95793,2091,1143,1643,16804,-1052,-1512,-736,-46,172
95803,2091,1115,1640,16764,-1104,-1456,-768,69,123
95813,2089,1123,1639,16892,-1264,-1584,-752,42,131
95823,2090,1131,1639,16800,-1148,-1232,-736,161,197
95833,2089,1141,1643,16792,-1000,-1580,-736,380,146
95843,2091,1139,1640,16836,-844,-1648,-720,407,89
95853,2089,1134,1636,16812,-928,-1476,-752,365,84
95863,2091,1139,1638,16844,-780,-1220,-752,413,42
95873,2091,1139,1637,16820,-572,-1720,-752,421,85
95883,2089,1125,1637,16792,-736,-1664,-800,198,182
95893,2089,1125,1644,16752,-1020,-1356,-768,-80,237
95903,2091,1113,1638,16552,-1144,-1432,-768,-247,175
95913,2091,1118,1638,16720,-1204,-1428,-768,-388,104
95923,2090,1123,1639,16740,-1096,-1316,-768,-120,26
95933,2058,1121,1637,16808,-1280,-1352,-768,142,47
95943,2088,1126,1635,16768,-1124,-1448,-768,94,127
95953,2089,1138,1640,16732,-872,-1496,-768,188,86
95963,2089,1139,1639,16848,-620,-1420,-784,249,275
95973,2091,1144,1637,16868,-768,-1568,-768,113,118
95983,2091,1145,1636,16784,-640,-1544,-768,-97,89
95993,2090,1140,1639,16728,-568,-1488,-752,0,90
96003,2090,1128,1637,16748,-688,-1616,-736,-59,154
96013,2090,1131,1637,16812,-752,-1520,-784,-269,217
96023,2089,1135,1635,16600,-792,-1448,-752,-280,234
96033,2091,1136,1636,16660,-776,-1428,-752,-208,188
96043,2087,1141,1631,16752,-840,-1432,-768,-274,164
96053,2091,1131,1636,16788,-816,-1408,-768,-323,197
96063,2090,1135,1638,16720,-824,-1164,-768,-167,166
96073,2083,1135,1637,16904,-776,-1472,-736,75,175
96083,2089,1136,1637,16800,-772,-1376,-768,134,270
96093,2091,1133,1635,16736,-628,-1612,-784,-13,301
96103,2091,1133,1637,16680,-636,-1640,-784,-231,214
96113,2088,1133,1639,16676,-792,-1476,-736,-310,129
96123,2089,1133,1636,16792,-876,-1516,-784,-352,105
96133,2090,1133,1637,16840,-868,-1424,-784,-355,205
96143,2091,1142,1636,16692,-992,-1388,-768,-233,283
96153,2091,1150,1635,16680,-1040,-1600,-752,-66,235
96163,2091,1147,1637,16844,-880,-1388,-800,-31,174
96173,2091,1139,1639,16808,-860,-1544,-768,-179,153
96183,2091,1131,1631,16700,-1076,-1536,-768,-257,203
96193,2089,1132,1631,16848,-964,-1464,-736,-141,214
96203,2091,1133,1631,16772,-920,-1608,-800,19,118
96213,2090,1141,1631,16688,-884,-1576,-752,44,229
96223,2089,1141,1637,16772,-964,-1468,-752,-38,255
96233,2087,1132,1603,16856,-864,-1448,-768,-26,225
96243,2090,1129,1636,16760,-912,-1492,-784,28,194
96253,2089,1135,1633,16808,-1052,-1480,-784,-86,165
96263,2089,1133,1635,16732,-944,-1304,-768,-60,242
96273,2089,1139,1634,16748,-908,-1560,-752,-9,270
96283,2091,1141,1631,16820,-1024,-1596,-752,-18,223
96293,2092,1147,1635,16868,-892,-1352,-768,-65,269
96303,2091,1147,1635,16732,-888,-1492,-736,-85,251
96313,2091,1141,1635,16720,-1056,-1544,-752,-245,289
96323,2090,1139,1636,16752,-988,-1280,-736,-289,320
96333,2085,1177,1630,16692,-1036,-1348,-768,-183,254
96343,2088,1133,1631,16812,-972,-1332,-752,33,245
96353,2090,1121,1635,16792,-880,-1420,-768,199,182
96363,2091,1133,1630,16828,-908,-1596,-736,177,40
96373,2090,1145,1629,16788,-944,-1632,-752,97,253
96383,2090,1150,1635,16848,-592,-1408,-752,119,244
96393,2088,1142,1635,16772,-696,-1468,-800,140,255
96403,2091,1142,1631,16788,-760,-1608,-768,-67,243
96413,2091,1135,1631,16756,-744,-1544,-736,-342,278
96423,2090,1132,1631,16696,-884,-1428,-736,-267,241
96433,2091,1130,1634,16692,-1060,-1480,-768,-128,139
96443,2091,1139,1630,16816,-972,-1332,-752,-64,154
96453,2089,1135,1634,16772,-864,-1452,-736,31,229
96463,2089,1139,1631,16740,-844,-1736,-752,164,272
96473,2087,1140,1631,16836,-740,-1352,-736,173,265
96483,2089,1135,1630,16692,-748,-1420,-768,67,304
96493,2089,1129,1630,16688,-668,-1328,-752,4,195
96503,2090,1136,1630,16668,-700,-1540,-752,-100,165
96513,2089,1131,1630,16864,-872,-1272,-768,-101,172
96523,2090,1134,1633,16644,-816,-1424,-784,-69,197
96533,2090,1135,1633,16676,-892,-1556,-752,-69,262
96543,2089,1133,1631,16696,-844,-1408,-768,-31,280
96553,2090,1133,1631,16712,-976,-1408,-768,-88,308
96563,2089,1139,1629,16672,-1088,-1560,-752,-226,289
96573,2091,1142,1631,16512,-1272,-1620,-736,-286,299
96583,2091,1145,1631,16464,-1692,-1996,-768,-440,244
96593,2089,1160,1627,16776,-2124,-1780,-736,-540,-30
96603,2090,1177,1627,17012,-2148,-1188,-752,-60,-153
96613,2090,1139,1635,17020,-2468,-1564,-736,-82,397
96623,2109,1097,1640,16528,-3492,-1992,-720,-1062,1056
96633,2091,1051,1639,15972,-4944,-2212,-720,-2022,1124
96643,2090,1043,1621,15884,-6008,-1568,-768,-2046,719
96653,2089,1041,1626,16084,-5916,-272,-704,-502,130
96663,2108,971,1629,16352,-5324,-616,-704,1918,-17
96673,2089,901,1636,16668,-5460,-2252,-736,2475,149
96683,2089,973,1637,16624,-5760,-2804,-736,1161,387
96693,2089,1138,1631,16460,-6288,-2576,-736,-34,615
96703,2088,1339,1629,16268,-6828,-2324,-736,-478,861
96713,2089,1312,1651,15940,-7272,-2308,-784,-350,1039
96723,2089,1256,1629,16036,-7984,-2812,-752,-539,1178
96733,2087,1299,1629,16520,-8680,-2684,-768,-1584,1256
96743,2087,1239,1627,16232,-8272,-1484,-752,-2025,1654
96753,2085,1197,1628,15256,-7648,-644,-720,-978,3180
96763,2091,1181,1625,14548,-6020,-480,-768,1374,4703
96773,2089,1169,1636,14156,-5536,-2888,-768,3160,4450
96783,2089,1159,1629,14220,-3700,-2820,-720,3600,3125
96793,2087,1148,1621,14224,-1688,-240,-752,3309,2239
96803,2090,1151,1610,14480,2448,2352,-736,3156,3183
96813,2089,1143,1623,14104,5060,-232,-784,2418,3941
96823,2095,1145,1637,13760,8220,-4084,-736,293,3029
96833,2090,1145,1636,14432,9008,-2340,-736,-393,1845
96843,2090,1145,1629,14288,9368,-780,-736,-2017,1018
96853,2091,1141,1628,15024,9460,-1608,-768,-4106,664
96863,2091,1143,1642,14640,9452,-124,-768,-6542,1921
96873,2093,1144,1641,14372,9568,2440,-736,-5384,4554
96883,2046,1144,1688,15000,8244,76,-736,-1116,3313
96893,2083,1142,1661,15560,7452,-268,-768,3181,995
96903,2091,1145,1683,16196,8748,996,-752,6951,488
96913,2095,1144,1705,16896,11752,3016,-752,11982,1459
96923,2078,1144,1675,17700,16828,1152,-736,16222,1920
96933,2088,1144,1672,19048,22412,-396,-752,19234,3751
96943,2087,1143,1605,21172,27280,-4648,-752,16424,4386
96953,2079,1143,1597,20980,27672,-6356,-736,8731,2617
96963,2093,1143,1594,20620,25548,-4048,-768,2182,1430
96973,2095,1141,1560,21120,22528,-2064,-752,2688,-739
96983,2100,1143,1555,22896,21232,-2220,-736,6384,-4014
96993,2095,1142,1595,26088,21024,-3076,-768,8110,-5996
97003,2101,1145,1622,32767,17372,-5500,-752,4259,-8069
97013,2077,1144,1573,32767,10620,-3400,-752,-4085,-12839
97023,2090,1143,1541,32767,4328,6180,-800,-11198,-10481
97033,2087,1144,1483,32767,-916,6380,-752,-10872,-1380
97043,2095,1119,1470,32048,-1876,6980,-768,-3638,8880
97053,2061,1139,1503,24840,236,5580,-736,5612,15814
97063,2031,1132,1653,16036,5176,-148,-768,10162,18181
97073,2117,1096,1723,7740,4064,-7152,-768,6394,20681
97083,2110,888,1654,3476,800,-13640,-768,-9476,24461
97093,2130,781,1653,196,-5104,-9852,-784,-29218,25053
97103,2089,767,1527,-768,-10588,-7316,-736,-32768,20382
97113,2087,977,1493,1760,-13596,-1164,-736,-32768,8076
97123,2103,1163,1698,-1516,-8104,2968,-720,-26854,-5431
97133,2059,1624,1709,-1552,-9908,7144,-752,579,-13239
97143,2087,1311,1621,6508,-10172,6720,-768,13778,-11104
97153,2092,1235,1627,8672,-4552,4128,-736,16561,-9442
97163,2107,1298,1689,2072,-204,2412,-752,20546,-725
97173,2091,1643,1767,3020,2456,-6828,-736,20180,7716
97183,2085,1481,1671,3336,-784,-3732,-736,14307,11904
97193,2069,1048,1617,2828,-2600,2232,-784,6458,12821
97203,2086,877,1607,532,-3196,2228,-784,389,11839
97213,2089,745,1615,-496,-2288,-1352,-752,-3329,6617
97223,2092,749,1619,-1460,-2904,-6660,-784,-3819,326
97233,2089,851,1639,-2380,-2852,-5996,-800,-1257,-4869
97243,2099,1100,1659,-840,-4632,-1024,-768,2362,-8710
97253,2085,1192,1624,468,-5760,3508,-784,5624,-5911
97263,2077,1165,1605,1796,-6056,5164,-768,8701,-1985
97273,2149,1823,1635,4888,-3432,6716,-768,13270,2278
97283,2063,920,1573,5552,7340,5536,-752,18856,6179
97293,2193,2186,1941,12564,14792,-8456,-768,29042,-6736
97303,2057,0,1588,21084,9076,-11208,-736,26751,-18010
97313,2032,2403,1610,32767,23688,-32768,-784,-10371,-32768
97323,1965,1992,1660,25460,13080,644,-784,-32768,-32768
97333,2135,1878,1565,22068,1120,8700,-768,-32768,-14402
97343,2055,1719,1491,17740,-11744,2696,-800,-32768,8384
97353,2095,1773,1650,32767,-13000,-96,-768,-32768,14972
97363,2125,1751,1599,24608,-5956,7356,-768,-1675,3816
97373,2135,1738,1613,25448,-7144,-3960,-768,32767,-13464
97383,2133,1687,1606,32767,-17864,-12604,-736,31679,-25048
97393,2079,1668,1618,32767,-7332,16540,-768,2693,-31130
97403,2065,1655,1542,32767,-128,19472,-752,4,-2280
97413,2076,1659,1497,25004,19868,688,-752,20042,21699
97423,2077,1651,1677,16280,23628,-4796,-768,32767,31251
97433,2090,1629,1712,6844,26852,-1752,-784,32767,32767
97443,2089,1625,1654,11328,31648,-3252,-784,32355,32767
97453,2089,1618,1623,11132,32767,-12428,-800,7680,32767
97463,2089,1610,1646,5904,27256,-17360,-800,-16593,25299
97473,2093,1595,1671,4104,16500,-12592,-800,-32063,3401
97483,2085,1579,1642,10452,2500,-3204,-768,-32768,-17474
97493,2092,1573,1591,17412,-940,7724,-784,-32768,-32768
97503,2090,1567,1577,29380,-9452,15196,-784,-32768,-32768
97513,2088,1561,1559,17128,-12836,7700,-800,-32768,-32768
97523,2086,1555,1598,19764,-8924,2504,-784,-20471,-32519
97533,2085,1555,1630,24032,-8252,-1132,-784,5145,-15941
97543,2089,1549,1643,24696,-6608,1292,-768,21698,881
97553,2090,1547,1623,22712,-3856,-52,-768,23922,15373
97563,2088,1543,1621,18108,-424,-3372,-752,18301,23186
97573,2089,1532,1619,14400,2036,-4644,-768,12799,22110
97583,2087,1527,1627,11684,2012,-5692,-752,7910,15413
97593,2089,1534,1619,10876,2284,-5188,-768,3079,6228
97603,2087,1515,1617,12724,824,-2744,-752,-2831,-3396
97613,2094,1501,1605,14360,120,-2568,-784,-7963,-10003
97623,2089,1495,1614,16016,-124,-996,-784,-9975,-13980
97633,2087,1501,1621,18140,-908,2424,-736,-7687,-12679
97643,2089,1498,1625,20040,-1896,3756,-768,-3037,-8409
97653,2089,1495,1624,20844,-2252,2544,-768,1187,-2665
97663,2088,1489,1631,19768,-1840,696,-768,4107,2336
97673,2089,1485,1626,18228,-1128,-740,-800,4805,4704
97683,2090,1483,1619,16500,-376,-2172,-752,3698,4447
97693,2088,1479,1620,15288,-176,-4292,-784,1077,1964
97703,2089,1477,1615,15240,380,-4736,-800,-1524,-972
97713,2088,1467,1617,16216,552,-3288,-784,-3724,-2929
97723,2092,1465,1613,16924,788,-2292,-768,-4481,-2990
97733,2088,1463,1627,17588,584,-1744,-800,-3794,-1497
97743,2089,1461,1625,17676,216,-760,-768,-2454,565
97753,2087,1459,1627,17340,-528,516,-768,-1212,2288
97763,2089,1451,1621,16600,-1348,868,-768,-585,2961
97773,2083,1447,1621,15600,-1828,652,-784,170,2279
97783,2089,1445,1617,15280,-1532,-40,-768,1373,319
97793,2083,1444,1612,15432,-1032,-152,-768,2666,-1689
97803,2088,1439,1614,16444,-236,-372,-816,3316,-2749
97813,2087,1437,1619,17156,688,-976,-784,3373,-2487
97823,2087,1435,1621,17572,1388,-2196,-768,2567,-1444
97833,2088,1433,1621,17688,1708,-2196,-784,1318,-254
97843,2085,1433,1620,17476,2144,-1568,-784,516,792
97853,2089,1432,1615,16936,1796,-1656,-800,-200,1166
97863,2089,1428,1617,16700,1148,-1600,-800,-1081,731
97873,2087,1421,1621,16716,800,-996,-784,-1830,175
97883,2087,1420,1619,16652,60,-576,-736,-1939,-321
97893,2089,1417,1618,16644,-256,-788,-736,-1070,-627
97903,2095,1415,1611,16960,16,-992,-784,498,-579
97913,2087,1413,1613,16980,824,-928,-784,2042,-157
97923,2089,1407,1615,17204,1176,-1036,-784,2425,476
97933,2087,1404,1621,17136,1152,-1192,-784,1262,1075
97943,2088,1399,1621,16728,432,-1480,-800,-640,1014
97953,2086,1400,1619,16296,-308,-1640,-816,-2194,206
97963,2089,1399,1617,16320,-1080,-1152,-784,-2509,-791
97973,2089,1396,1617,16348,-1240,-940,-768,-1390,-1405
97983,2089,1395,1614,16828,-1288,-948,-800,222,-1212
97993,2087,1391,1615,17184,-1204,-1064,-816,1306,-503
98003,2089,1389,1619,17292,-376,-616,-800,1994,355
98013,2088,1391,1609,17056,776,-488,-800,2459,1136
98023,2089,1387,1620,16812,1336,-1868,-816,2130,977
98033,2101,1384,1619,16576,1364,-2296,-784,804,443
98043,2087,1384,1619,16664,1224,-1872,-768,-663,-137
98053,2087,1381,1612,16636,896,-1636,-784,-1210,-576
98063,2088,1381,1618,16908,892,-920,-784,-779,-557
98073,2088,1380,1615,17212,1072,-1028,-800,43,-150
98083,2088,1379,1621,17272,1088,-1232,-768,514,482
98093,2087,1373,1620,17272,1020,-1192,-784,5,1050
98103,2089,1371,1618,16728,456,-796,-768,-780,1137
98113,2087,1369,1611,16484,168,-1044,-800,-1179,569
98123,2089,1367,1617,16524,-216,-1124,-800,-1158,-209
98133,2089,1367,1615,16624,-636,-932,-784,-722,-687
98143,2087,1365,1612,16912,-620,-972,-752,-126,-470
98153,2091,1363,1612,16996,-88,-888,-784,890,89
98163,2088,1363,1617,16892,300,-1288,-752,1815,431
98173,2089,1363,1614,17044,872,-1464,-752,1851,614
98183,2078,1363,1613,16808,1604,-1224,-752,1497,711
98193,2089,1358,1619,16736,1868,-1272,-768,950,622
98203,2089,1355,1618,16796,1848,-1824,-784,-13,209
98213,2087,1355,1619,16848,1380,-1644,-752,-1234,-58
98223,2089,1353,1619,16916,860,-1148,-800,-1908,-78
98233,2088,1340,1609,16872,364,-924,-768,-1747,29
98243,2087,1351,1613,16876,164,-808,-752,-1048,98
98253,2089,1341,1610,16912,308,-604,-768,-117,253
98263,2085,1343,1609,17048,552,-420,-768,704,353
98273,2088,1342,1611,16980,860,-1220,-752,751,286
98283,2087,1341,1597,16920,1300,-1624,-816,29,172
98293,2084,1339,1613,16696,1208,-1160,-768,-626,184
98303,2087,1339,1615,16604,1020,-1548,-784,-874,18
98313,2089,1338,1613,16748,740,-1580,-784,-905,-241
98323,2088,1335,1613,16844,196,-1148,-768,-759,-281
98333,2089,1369,1608,17076,156,-744,-768,-635,4
98343,2089,1333,1611,16932,96,-952,-784,-206,245
98353,2089,1333,1613,16912,228,-916,-768,236,404
98363,2089,1331,1611,16716,160,-1024,-768,267,402
98373,2089,1329,1615,16772,248,-1336,-752,-132,300
98383,2089,1327,1613,16564,388,-1344,-784,-727,147
98393,2087,1327,1609,16676,252,-1088,-816,-1140,51
98403,2088,1325,1613,16616,80,-1024,-752,-1355,162
98413,2075,1321,1613,16636,-248,-1260,-768,-1304,-90
98423,2087,1321,1611,16592,-632,-996,-752,-1021,88
98433,2089,1320,1610,16616,-704,-984,-752,-475,156
98443,2085,1319,1608,16652,-712,-908,-768,39,219
98453,2086,1321,1610,16836,-628,-944,-752,314,281
98463,2087,1317,1612,16752,-288,-900,-784,718,341
98473,2088,1317,1615,16916,144,-1232,-768,790,317
98483,2088,1316,1615,16864,680,-908,-800,914,202
98493,2087,1315,1614,16876,1040,-1372,-752,968,102
98503,2087,1315,1611,16948,1212,-1464,-800,616,67
98513,2087,1311,1610,16840,1404,-1340,-736,131,212
98523,2087,1310,1610,16828,1160,-1328,-752,-263,205
98533,2087,1308,1609,16720,932,-1260,-768,-553,178
98543,2087,1307,1609,16812,740,-1076,-768,-771,152
98553,2088,1307,1609,16728,272,-1192,-784,-977,196
98563,2090,1307,1611,16808,-28,-1024,-752,-1119,230
98573,2087,1307,1609,16884,-236,-816,-768,-898,197
98583,2089,1304,1611,16784,-304,-780,-752,-408,110
98593,2086,1305,1611,16740,-72,-928,-752,42,54
98603,2087,1302,1613,16904,244,-1132,-768,310,140
98613,2087,1302,1615,16924,304,-1100,-800,122,276
98623,2087,1301,1611,16740,492,-1272,-784,-254,275
98633,2087,1300,1609,16720,404,-1128,-768,-492,146
98643,2087,1300,1610,16728,276,-1164,-768,-704,7
98653,2087,1299,1609,16684,-48,-1228,-800,-985,36
98663,2087,1300,1609,16712,-212,-988,-784,-1062,100
98673,2087,1295,1612,16784,-452,-1100,-784,-776,-7
98683,2087,1294,1612,16980,-480,-908,-752,-328,-45
98693,2087,1293,1609,17012,-276,-824,-752,-58,200
98703,2086,1294,1611,16732,-140,-1164,-768,304,368
98713,2087,1292,1611,16744,-140,-1036,-752,211,339
98723,2089,1290,1609,16548,-168,-1112,-768,-135,292
98733,2087,1291,1625,16492,-40,-1272,-736,-240,73
98743,2088,1289,1609,16604,-252,-1140,-768,-165,-198
98753,2087,1287,1608,16912,-200,-800,-800,-142,-144
98763,2076,1287,1609,16964,-36,-996,-768,-26,108
98773,2087,1288,1609,17020,-40,-1072,-752,193,188
98783,2088,1289,1609,16908,76,-1044,-768,354,242
98793,2087,1286,1606,16772,216,-1124,-768,221,265
98803,2087,1286,1608,16668,396,-1280,-752,-24,147
98813,2088,1279,1609,16592,368,-1220,-752,-214,53
98823,2087,1277,1609,16728,340,-1096,-768,-405,-114
98833,2087,1284,1611,16856,100,-1080,-752,-487,-113
98843,2087,1276,1608,16932,208,-1060,-752,-329,-97
98853,2091,1275,1609,16732,152,-1144,-768,-130,-21
98863,2088,1276,1608,16840,128,-816,-768,21,50
98873,2087,1275,1609,16740,92,-1232,-752,67,62
98883,2089,1273,1610,16732,136,-1120,-768,143,-151
98893,2088,1275,1611,16800,144,-1320,-768,280,-304
98903,2088,1273,1609,16904,284,-1100,-784,358,-211
98913,2087,1273,1642,16936,440,-1136,-768,499,-42
98923,2087,1272,1611,16824,520,-1512,-768,465,-27
98933,2087,1271,1609,16708,528,-1580,-752,145,-134
98943,2088,1273,1607,16668,356,-1216,-736,-200,-119
98953,2089,1269,1605,16712,232,-1344,-768,-409,-188
98963,2077,1268,1607,16604,60,-1224,-784,-386,-302
98973,2089,1270,1608,16760,-332,-1240,-752,-317,-274
98983,2084,1269,1607,16740,-432,-1064,-768,-136,-196
98993,2087,1267,1605,16840,-312,-772,-752,173,-55
99003,2087,1267,1608,16752,-380,-1276,-768,493,-30
99013,2089,1267,1607,16740,-296,-1372,-800,593,-206
99023,2089,1262,1608,16960,-156,-1240,-768,690,-266
99033,2087,1263,1608,16816,172,-1496,-768,1061,-320
99043,2085,1263,1573,16932,300,-1784,-736,1230,-258
99053,2087,1261,1607,17020,600,-1520,-752,956,-35
99063,2088,1261,1611,16840,680,-1924,-784,543,118
99073,2087,1260,1609,16644,440,-2284,-768,68,-53
99083,2087,1259,1607,16728,284,-1484,-752,-62,-218
99093,2087,1258,1607,16960,408,-1540,-720,225,-253
99103,2087,1258,1605,17088,340,-1620,-768,446,-132
99113,2087,1259,1605,17044,468,-1412,-752,358,216
99123,2086,1257,1605,16840,588,-1368,-752,339,390
99133,2092,1257,1607,16700,440,-1336,-768,446,200
99143,2087,1255,1605,16796,432,-1332,-736,281,7
99153,2090,1257,1607,16696,480,-1356,-752,157,-86
99163,2088,1256,1606,16700,380,-1660,-768,180,-166
99173,2087,1255,1608,16996,248,-1480,-768,-97,-157
99183,2087,1255,1607,16896,8,-1352,-768,-180,-82
99193,2087,1253,1608,16868,-16,-1532,-752,-62,-76
99203,2087,1253,1607,16780,20,-1460,-768,233,-83
99213,2087,1255,1607,16900,-116,-1468,-720,270,22
99223,2087,1253,1607,16900,-28,-1728,-752,154,98
99233,2087,1251,1607,16724,-84,-1508,-768,157,71
99243,2089,1252,1607,16812,-44,-1484,-768,219,-21
99253,2087,1241,1606,16912,-60,-1756,-736,183,-34
99263,2089,1252,1605,16868,-232,-1724,-736,-62,59
99273,2087,1251,1605,16936,-84,-1088,-768,-79,233
99283,2088,1247,1607,16664,-344,-1296,-736,139,256
99293,2087,1261,1605,16656,-500,-1452,-768,36,65
99303,2089,1183,1605,16676,-608,-1432,-736,-178,-87
99313,2087,1247,1599,16596,-448,-1364,-784,42,-142
99323,2088,1225,1608,16716,-312,-1416,-768,477,-61
99333,2079,1247,1606,16768,-296,-1784,-752,318,110
99343,2087,1245,1606,16860,-164,-1680,-752,-120,196
99353,2088,1246,1607,16880,-272,-1516,-736,-328,126
99363,2087,1243,1605,16860,-152,-1332,-752,-172,48
99373,2088,1243,1603,16764,-24,-1684,-752,283,-55
99383,2087,1244,1605,16856,200,-1620,-736,549,-87
99393,2087,1244,1603,16964,340,-1252,-752,251,187
99403,2089,1241,1605,16768,400,-1616,-752,59,424
99413,2087,1241,1606,16624,272,-1868,-736,147,248
99423,2088,1241,1605,16756,252,-1560,-768,-74,79
99433,2087,1235,1607,16740,120,-1540,-784,-271,63
99443,2087,1241,1605,16844,40,-1568,-768,-266,73
99453,2087,1240,1597,16928,-104,-1348,-768,-65,93
99463,2099,1239,1603,16876,116,-1000,-752,352,147
99473,2088,1239,1603,16948,212,-1248,-768,882,137
99483,2087,1238,1603,16856,436,-1604,-736,751,186
99493,2085,1239,1598,16680,624,-1664,-752,491,205
99503,2087,1238,1599,16588,560,-1728,-752,213,129
99513,2087,1238,1605,16536,372,-1768,-768,-228,61
99523,2087,1239,1605,16784,168,-1968,-720,-650,-14
99533,2088,1239,1605,16784,-104,-1728,-736,-710,11
99543,2088,1262,1603,16812,-152,-1232,-736,-415,149
99553,2087,1236,1599,16808,-88,-1388,-768,15,244
99563,2091,1237,1603,16952,-8,-1280,-768,158,264
99573,2091,1237,1603,16780,208,-1316,-736,161,293
99583,2089,1235,1603,16624,244,-1548,-736,222,233
99593,2087,1205,1604,16680,304,-1584,-736,291,72
99603,2089,1198,1599,16824,396,-1476,-736,132,44
99613,2088,1235,1607,16852,348,-1800,-752,-235,164
99623,2086,1235,1604,16748,20,-1644,-720,-486,290
99633,2087,1233,1605,16676,44,-1532,-768,-386,348
99643,2088,1231,1598,16724,76,-1484,-752,-93,176
99653,2087,1229,1605,16852,12,-1400,-752,283,24
99663,2088,1231,1596,17020,104,-1568,-736,241,123
99673,2087,1230,1598,16864,388,-1588,-752,172,290
99683,2088,1229,1597,16780,452,-1396,-752,299,408
99693,2087,1231,1599,16780,472,-1480,-736,171,412
99703,2088,1233,1599,16672,380,-1632,-736,-117,270
99713,2087,1231,1599,16588,404,-1592,-720,-287,89
99723,2087,1228,1599,16836,344,-1504,-704,-315,101
99733,2087,1228,1599,16732,296,-1664,-768,-327,214
99743,2087,1228,1599,16852,260,-1464,-752,-423,328
99753,2129,1227,1606,16780,-52,-1312,-752,-408,377
99763,2087,1227,1597,16748,28,-1340,-736,-97,284
99773,2087,1226,1597,16868,256,-1296,-752,58,112
99783,2087,1223,1599,16916,284,-1604,-752,7,127
99793,2088,1227,1598,16900,312,-1532,-768,-70,247
99803,2087,1226,1599,16832,368,-1432,-752,-55,324
99813,2086,1215,1597,16616,316,-1716,-720,-45,363
99823,2085,1225,1595,16732,368,-1740,-736,-184,361
99833,2085,1223,1598,16700,340,-1592,-768,-357,299
99843,2079,1223,1597,16800,156,-1476,-752,-506,325
99853,2087,1225,1597,16780,80,-1412,-768,-512,341
99863,2087,1223,1599,16664,-112,-1468,-768,-393,305
99873,2087,1223,1597,16780,40,-1504,-784,-150,308
99883,2107,1221,1599,16816,160,-1472,-736,92,248
99893,2087,1223,1595,16872,268,-1556,-752,147,345
99903,2089,1223,1599,16848,464,-1588,-752,44,391
99913,2087,1223,1603,16832,364,-1560,-752,-135,341
99923,2087,1222,1604,16872,404,-1544,-736,-219,288
99933,2089,1223,1596,16764,268,-1352,-752,-251,235
99943,2085,1222,1596,16928,164,-1604,-768,-353,263
99953,2087,1222,1597,16860,96,-1564,-768,-330,272
99963,2088,1215,1594,16768,-16,-1236,-736,-37,346
99973,2086,1215,1595,16876,148,-1300,-768,208,405
99983,2087,1216,1596,16780,276,-1460,-736,376,319
99993,2087,1222,1595,16796,484,-1260,-784,273,299
100003,2077,1215,1596,16780,536,-1320,-736,77,293
100013,2087,1227,1597,16680,488,-1600,-768,-37,83
100023,2090,1214,1597,16788,420,-1616,-752,-217,0
100033,2087,1214,1595,16788,228,-1592,-752,-383,44
100043,2086,1214,1595,16864,276,-1704,-768,-314,265
100053,2085,1216,1595,16804,4,-1596,-720,-213,265
100063,2086,1212,1599,16864,-20,-1420,-752,-127,381
100073,2085,1213,1595,16740,-32,-1508,-768,-37,370
100083,2088,1213,1597,16880,40,-1416,-752,18,314
100093,2088,1213,1595,16600,0,-1432,-752,99,209
100103,2087,1213,1592,16768,-72,-1556,-704,-39,141
100113,2087,1213,1595,16788,52,-1476,-736,-102,143
100123,2087,1211,1595,16848,-40,-1444,-736,-3,220
100133,2087,1213,1596,16800,4,-1668,-736,23,285
100143,2088,1212,1603,16736,20,-1648,-736,-54,358
100153,2088,1211,1595,16764,-52,-1484,-752,-230,369
100163,2087,1210,1596,16800,-68,-1344,-720,-228,240
100173,2086,1210,1599,16892,4,-1432,-736,-75,103
100183,2098,1211,1597,16840,136,-1332,-752,170,182
100193,2085,1211,1595,17032,232,-1488,-752,254,345
100203,2087,1210,1595,16892,196,-1516,-768,215,459
100213,2085,1209,1574,16884,384,-1308,-720,67,508
100223,2085,1213,1598,16720,324,-1480,-768,-16,360
100233,2085,1225,1599,16816,240,-1532,-768,-71,229
100243,2087,1209,1595,16816,80,-1276,-704,-121,225
100253,2087,1198,1595,16704,152,-1412,-736,-2,294
100263,2087,1209,1591,16756,136,-1456,-768,128,357
100273,2087,1209,1592,16728,132,-1340,-720,25,408
100283,2079,1208,1595,16800,184,-1516,-736,-188,365
100293,2088,1209,1599,16740,200,-988,-736,-110,322
100303,2087,1207,1596,16696,100,-1408,-720,-2,187
100313,2087,1209,1592,16764,76,-1472,-752,-116,187
100323,2087,1207,1597,16724,80,-1144,-736,-92,165
100333,2086,1207,1591,16724,4,-1636,-752,114,146
100343,2087,1208,1597,16868,208,-1704,-752,120,73
100353,2087,1207,1596,16908,200,-1616,-704,96,122
100363,2087,1205,1595,16916,192,-1512,-752,-110,285
100373,2085,1207,1594,16900,296,-1380,-752,-205,410
100383,2087,1213,1594,16656,228,-1484,-736,-131,320
100393,2086,1206,1593,16696,36,-1284,-736,-227,202
100403,2092,1204,1591,16776,36,-1044,-720,-219,228
100413,2089,1205,1594,16792,164,-1188,-736,147,151
100423,2088,1205,1593,16804,260,-1304,-752,282,106
100433,2087,1205,1593,16736,272,-1404,-752,-39,146
100443,2087,1205,1595,16896,284,-1508,-752,-186,77
100453,2087,1205,1613,16836,380,-1536,-720,-58,70
100463,2088,1205,1595,16816,252,-1472,-720,-56,190
100473,2089,1203,1596,16796,148,-1576,-736,-167,239
100483,2087,1205,1594,16732,36,-1388,-720,-210,237
100493,2087,1199,1591,16708,56,-1152,-752,-105,268
100503,2086,1203,1593,16716,120,-1324,-736,73,205
100513,2087,1203,1592,16764,288,-1424,-784,172,69
100523,2086,1202,1593,16876,212,-1376,-752,87,120
100533,2095,1203,1594,16744,348,-1444,-768,-16,168
100543,2086,1203,1594,16744,404,-1516,-736,71,105
100553,2089,1203,1594,16772,324,-1508,-752,-3,105
100563,2085,1203,1548,16816,324,-1480,-768,-152,143
100573,2087,1203,1594,16732,280,-1528,-736,-223,153
100583,2086,1202,1593,16768,216,-1404,-752,-240,234
100593,2086,1207,1594,16700,324,-1488,-704,-146,220
100603,2087,1199,1592,16780,204,-1136,-736,-74,120
100613,2087,1197,1593,16788,96,-1356,-752,-104,113
100623,2090,1197,1591,16720,212,-1520,-720,-108,86
100633,2087,1197,1593,16904,188,-1476,-736,-253,26
100643,2087,1199,1592,16760,104,-1260,-736,-173,94
100653,2087,1199,1592,16880,364,-1376,-704,127,135
100663,2087,1191,1593,16852,256,-1476,-736,153,155
100673,2086,1199,1594,16840,212,-1200,-736,-92,243
100683,2059,1197,1594,16700,172,-1564,-752,-114,169
100693,2086,1197,1595,16760,384,-1492,-720,-41,20
100703,2087,1197,1594,16692,224,-1136,-752,138,-3
100713,2088,1197,1592,16920,432,-1460,-768,271,15
100723,2088,1197,1593,16948,604,-1676,-752,273,116
100733,2087,1190,1593,16936,604,-1656,-736,16,237
100743,2088,1197,1593,16744,496,-1604,-688,-316,301
100753,2087,1198,1593,16560,372,-1424,-736,-411,147
100763,2087,1195,1592,16776,204,-1584,-736,-486,18
100773,2087,1195,1595,16840,32,-1492,-768,-553,-59
100783,2088,1196,1593,16856,-120,-1312,-704,-447,53
100793,2085,1207,1593,16868,-108,-1412,-768,-119,168
100803,2095,1195,1595,16864,28,-1464,-752,266,152
100813,2087,1195,1593,16756,-236,-1584,-704,133,213
100823,2088,1195,1557,16680,144,-1580,-768,-30,193
100833,2086,1195,1592,16696,184,-1396,-720,65,40
100843,2087,1196,1592,16752,132,-1712,-720,-92,-26
100853,2087,1197,1591,16828,128,-1484,-736,-462,112
100863,2087,1197,1592,16780,140,-1632,-752,-605,119
100873,2086,1203,1593,16860,-16,-1556,-720,-558,250
100883,2088,1194,1593,16780,-216,-1484,-736,-402,185
100893,2087,1194,1591,16812,-96,-1300,-736,-41,196
100903,2087,1193,1595,16816,68,-1240,-720,309,231
100913,2087,1194,1593,16832,208,-1632,-736,321,210
100923,2089,1193,1593,16776,404,-1740,-768,12,214
100933,2087,1196,1592,16788,416,-1532,-752,-128,157
100943,2087,1194,1591,16808,432,-1536,-720,-270,58
100953,2087,1192,1589,16748,196,-1420,-768,-484,53
100963,2087,1193,1591,16844,48,-1512,-752,-621,129
100973,2088,1194,1591,16804,-8,-1444,-720,-542,131
100983,2086,1191,1589,16908,-40,-1404,-736,-372,227
100993,2085,1199,1591,16872,-120,-1480,-704,-278,309
101003,2085,1192,1593,16800,40,-1448,-736,-165,327
101013,2087,1192,1595,16756,28,-1324,-736,5,325
101023,2087,1202,1593,16908,88,-1424,-736,62,251
101033,2084,1192,1591,16800,104,-1492,-720,-2,156
101043,2088,1193,1591,16900,252,-1540,-752,-25,158
101053,2086,1191,1591,16956,328,-1576,-704,-111,303
101063,2087,1191,1591,16788,144,-1672,-752,-325,388
101073,2085,1193,1595,16764,-24,-1540,-720,-441,341
101083,2085,1191,1589,16756,-260,-1472,-736,-454,288
101093,2088,1183,1588,16712,-244,-1396,-736,-315,216
101103,2088,1191,1582,16820,-268,-1420,-768,-137,160
101113,2087,1189,1587,16964,-48,-1464,-736,56,265
101123,2087,1191,1592,16908,-56,-1360,-736,295,348
101133,2086,1191,1591,16876,144,-1572,-720,303,433
101143,2087,1192,1593,16836,464,-1268,-736,255,484
101153,2087,1188,1591,16716,456,-1768,-752,70,297
101163,2087,1191,1589,16676,424,-1516,-752,-267,194
101173,2087,1191,1591,16728,184,-1472,-736,-466,165
101183,2085,1193,1592,16720,-24,-1528,-752,-462,104
101193,2084,1189,1590,16772,-80,-1316,-720,-299,129
101203,2085,1189,1590,16836,-128,-1400,-768,-164,244
101213,2087,1189,1587,16856,-100,-1636,-752,-109,281
101223,2087,1188,1589,16792,-64,-1356,-752,10,208
101233,2085,1189,1588,16792,236,-1248,-736,233,128
101243,2088,1189,1589,16916,200,-1484,-704,275,175
101253,2087,1189,1591,16868,384,-1564,-720,97,278
101263,2087,1188,1589,16828,340,-1476,-768,-129,458
101273,2087,1189,1591,16832,368,-1444,-736,-214,266
101283,2087,1188,1590,16720,228,-1672,-720,-303,125
101293,2088,1187,1591,16672,140,-1376,-752,-310,71
101303,2088,1189,1591,16784,-140,-1560,-736,-272,114
101313,2087,1189,1589,16808,-132,-1524,-736,-185,154
101323,2086,1187,1591,16792,-248,-1272,-720,-94,183
101333,2085,1183,1589,16764,24,-1436,-736,59,207
101343,2085,1188,1589,16916,48,-1444,-768,175,193
101353,2087,1183,1583,16928,180,-1248,-736,196,173
101363,2086,1188,1582,16896,128,-1516,-784,-54,234
101373,2089,1187,1588,16876,188,-1504,-720,-134,186
101383,2085,1187,1591,16664,76,-1260,-752,-23,128
101393,2087,1192,1592,16864,92,-1396,-752,152,59
101403,2069,1187,1589,16780,132,-1476,-736,238,86
101413,2093,1184,1588,16800,224,-1704,-736,157,214
101423,2087,1170,1589,16712,228,-1516,-720,-52,284
101433,2086,1184,1593,16740,20,-1724,-736,-406,195
101443,2086,1187,1589,16672,-128,-1536,-720,-635,73
101453,2085,1184,1587,16760,-144,-1264,-768,-314,17
101463,2104,1182,1584,16928,-204,-1368,-736,38,156
101473,2083,1187,1583,16948,-88,-1368,-768,125,186
101483,2087,1187,1587,16868,60,-1224,-768,89,268
101493,2079,1195,1582,16736,168,-1320,-768,221,259
101503,2086,1187,1587,16736,380,-1740,-720,346,91
101513,2087,1184,1587,16808,396,-1728,-720,107,132
101523,2087,1187,1589,16732,420,-1684,-704,-323,313
101533,2092,1184,1589,16764,124,-1832,-752,-634,309
101543,2087,1183,1591,16628,-204,-1304,-720,-583,151
101553,2087,1183,1591,16800,-196,-1276,-800,-332,47
101563,2086,1183,1583,16972,-196,-1116,-720,29,122
101573,2087,1183,1587,16960,116,-1224,-752,430,236
101583,2085,1183,1587,16856,260,-1420,-768,446,301
101593,2086,1182,1583,16676,228,-1572,-736,224,279
101603,2087,1183,1583,16612,500,-1524,-720,84,154
101613,2078,1181,1587,16756,424,-1572,-704,-64,61
101623,2087,1183,1591,16760,280,-1672,-768,-391,67
101633,2085,1181,1587,16980,84,-1568,-784,-667,167
101643,2086,1182,1587,16728,36,-1404,-720,-513,287
101653,2087,1181,1583,16848,-144,-1540,-768,-151,319
101663,2087,1182,1587,16836,48,-1232,-752,178,262
101673,2086,1183,1583,16864,164,-1384,-752,388,291
101683,2087,1182,1587,16840,260,-1664,-736,206,206
101693,2087,1183,1587,16872,288,-1248,-736,-57,173
101703,2079,1182,1588,16824,256,-1488,-736,-84,144
101713,2087,1183,1588,16820,240,-1704,-736,-190,88
101723,2095,1181,1589,16696,24,-1512,-704,-219,96
101733,2087,1180,1587,16836,0,-1672,-720,-253,130
101743,2086,1182,1587,16856,28,-1484,-752,-124,157
101753,2087,1181,1582,16812,296,-1516,-752,244,208
101763,2087,1181,1581,16884,352,-1364,-736,373,328
101773,2085,1181,1587,16816,524,-1668,-752,188,362
101783,2086,1181,1587,16744,376,-1504,-736,-94,299
101793,2085,1180,1587,16856,164,-1360,-752,-387,256
101803,2088,1179,1582,16784,124,-1252,-736,-509,111
101813,2087,1181,1587,16764,-32,-1408,-736,-327,4
101823,2085,1179,1583,16828,-36,-1444,-736,-57,37
101833,2086,1179,1589,16880,136,-1528,-768,85,210
101843,2086,1183,1587,16740,112,-1776,-736,27,392
101853,2087,1181,1582,16668,176,-1720,-720,-77,354
101863,2087,1180,1583,16800,160,-1440,-736,-206,248
101873,2087,1179,1583,16856,32,-1496,-736,-258,68
101883,2087,1179,1586,16880,-92,-1388,-752,-195,-15
101893,2085,1179,1587,16976,-140,-1188,-752,-108,98
101903,2087,1189,1586,16816,-148,-1372,-736,30,293
101913,2085,1179,1581,16780,-76,-1456,-752,122,333
101923,2079,1179,1589,16672,32,-1432,-752,160,290
101933,2083,1179,1581,16688,84,-1680,-736,-40,128
101943,2085,1178,1580,16708,-144,-1692,-736,-570,53
101953,2085,1205,1588,16776,-412,-1644,-752,-964,-114
101963,2086,1177,1589,16544,-996,-1708,-704,-1048,-155
101973,2087,1179,1576,16624,-1296,-1612,-736,-509,-153
101983,2085,1177,1583,17088,-324,-644,-720,1252,-109
101993,2087,1179,1583,17476,1056,-988,-736,2843,263
102003,2087,1180,1589,17292,1204,-2268,-704,1802,1233
102013,2087,1181,1590,16504,744,-2324,-736,-817,1771
102023,2085,1180,1590,16044,344,-1600,-736,-2196,1109
102033,2086,1179,1591,16040,-396,-1788,-736,-2387,-291
102043,2087,1178,1589,16192,-1084,-1332,-768,-2049,-880
102053,2085,1165,1576,16980,-1116,-608,-736,-1149,-283
102063,2085,1157,1579,17136,-456,-852,-720,177,640
102073,2085,1173,1580,16908,136,-1304,-752,932,1258
102083,2085,1171,1578,16708,320,-1508,-752,506,1491
102093,2085,1161,1581,16300,-112,-1676,-752,-674,1014
102103,2083,1161,1583,16236,-668,-1600,-720,-1847,493
102113,2085,1169,1587,16140,-1744,-868,-720,-2431,29
102123,2087,1164,1588,16316,-2944,-540,-736,-2313,-222
102133,2085,1115,1588,16472,-3760,-220,-736,-1473,-404
102143,2085,1075,1587,16560,-4340,-228,-752,-115,-317
102153,2085,1097,1579,16548,-5044,-1156,-736,1119,-265
102163,2085,1069,1588,16480,-5396,-1688,-736,1363,-132
102173,2089,1203,1588,16168,-5940,-2680,-720,778,123
102183,2087,1244,1587,16188,-6360,-2888,-752,-102,243
102193,2085,1138,1583,16268,-6672,-2596,-768,-855,415
102203,2085,1139,1583,16696,-7256,-2108,-768,-1890,538
102213,2085,1208,1588,16804,-7756,-1604,-720,-3293,861
102223,2085,1269,1581,16604,-7900,-140,-736,-3950,1511
102233,2091,1271,1580,16192,-6716,1964,-736,-2638,2314
102243,2083,1255,1575,15492,-4688,3404,-720,809,2582
102253,2083,1224,1563,14396,-884,4324,-720,5831,2288
102263,2089,1224,1576,13760,2804,2980,-720,10510,1650
102273,2085,1204,1572,13700,5556,492,-752,12409,177
102283,2087,1189,1589,13632,7100,-1820,-736,9903,-1176
102293,2087,1179,1589,12992,9968,-3380,-736,7043,-1455
102303,2085,1179,1581,13680,10416,-4500,-720,3264,-2216
102313,2083,1175,1591,14756,9660,-6456,-736,-1650,-3773
102323,2085,1176,1589,15600,8068,-5548,-736,-6641,-4378
102333,2087,1177,1582,17616,5172,-4488,-752,-10942,-4500
102343,2083,1175,1576,19132,2348,-1780,-752,-13685,-3972
102353,2085,1173,1575,19224,1372,1764,-736,-12831,-1313
102363,2087,1173,1583,18088,-28,2052,-720,-8148,1623
102373,2085,1175,1573,16900,240,-168,-752,-1773,2183
102383,2089,1176,1573,15464,1628,-1800,-736,3812,1691
102393,2087,1177,1547,15236,4380,-4012,-736,7134,454
102403,2083,1175,1561,15380,7992,-6816,-768,6394,-566
102413,2083,1175,1583,14776,10612,-5840,-736,4228,509
102423,2087,1175,1590,16220,11556,-6576,-768,2220,935
102433,2087,1175,1582,16936,10048,-7788,-720,-236,-254
102443,2079,1175,1575,17232,8488,-6040,-720,-3498,-621
102453,2085,1176,1587,17020,8912,-352,-720,-3782,2215
102463,2085,1175,1589,16344,8172,104,-784,430,3375
102473,2079,1175,1587,15412,8176,-1528,-736,4153,4026
102483,2085,1176,1594,16172,9484,-1680,-736,5352,4093
102493,2085,1175,1589,16288,9872,-1836,-736,4918,3012
102503,2085,1175,1583,16728,10928,-1072,-736,4145,2661
102513,2083,1176,1592,15992,11972,-1540,-736,5059,3009
102523,2090,1175,1635,17400,13252,-2320,-752,5863,3614
102533,2079,1175,1625,17912,12964,-1252,-752,5419,4085
102543,2083,1173,1575,18100,13428,512,-736,5270,5442
102553,2087,1175,1591,18108,14860,-116,-752,7811,5275
102563,2077,1175,1553,18452,17764,-2228,-752,11320,3379
102573,2069,1173,1555,20028,20076,-4100,-736,13095,868
102583,2084,1172,1582,22284,22356,-4488,-736,10867,296
102593,2095,1173,1573,23328,21008,-6352,-752,6448,148
102603,2102,1174,1594,25112,18420,-3612,-720,1158,-104
102613,2092,1176,1645,28888,13976,-2724,-720,-50,-2674
102623,2101,1175,1562,32767,8308,-2724,-720,-2488,-8446
102633,2083,1173,1465,32767,724,6768,-704,-9138,-11168
102643,2079,1173,1405,32767,-3656,7304,-704,-9664,-4202
102653,2067,1177,1449,30616,-2764,6228,-752,-2053,4471
102663,2055,1174,1565,23616,540,6016,-736,7218,11674
102673,2089,1145,1721,14436,3820,-420,-736,10828,15652
102683,2100,951,1695,7816,5572,-9116,-752,5458,19981
102693,2109,704,1519,4788,2876,-10668,-736,-7920,24201
102703,2111,809,1432,2740,-1436,-9920,-736,-23196,22617
102713,2089,949,1354,1720,-6764,-8540,-752,-32768,15449
102723,2088,1075,1589,328,-5820,-5776,-752,-32768,4472
102733,2085,1659,1623,20,-7440,-1268,-736,-30568,-3980
102743,2078,1543,1605,800,-10020,5908,-736,-18906,-7901
102753,2085,1322,1605,3600,-10304,9520,-768,-9828,-5719
102763,2076,1226,1625,7980,-5596,2472,-736,-2491,-3536
102773,2080,1205,1663,7112,-1064,928,-736,4602,-2254
102783,2085,1303,1686,4780,1356,-2280,-752,8810,1717
102793,2085,1576,1675,4192,-584,-2632,-720,6214,7153
102803,2084,1342,1628,3560,-5456,-488,-736,-3731,12517
102813,2076,975,1566,1220,-8056,4084,-736,-13281,14300
102823,2089,645,1528,-792,-8244,4236,-768,-14107,10082
102833,2091,543,1565,-2716,-10012,2648,-704,-8599,5057
102843,2089,617,1599,-1020,-9408,2976,-752,2014,-1162
102853,2092,710,1609,1104,-8524,1876,-736,11391,-5668
102863,2094,1380,1603,3036,-8012,-420,-768,15767,-6413
102873,2103,1932,1645,4212,-6236,892,-752,18768,-4476
102883,2072,953,1493,6556,-1244,1988,-752,21131,1766
102893,2117,1286,1643,8804,4360,-1284,-736,27374,-3009
102903,2091,2109,1701,9088,6260,-3696,-752,30720,-5602
102913,2078,231,1509,23260,8928,-12728,-752,21411,-4335
102923,1999,1251,1588,32767,14340,-20632,-800,2966,-28303
102933,2065,1403,1675,25100,7984,-24288,-736,-15155,-32768
102943,2023,1455,1513,27376,-1044,-13408,-784,-32768,-23606
102953,2037,1451,1379,25972,-6644,5480,-752,-32768,-1390
102963,2077,1480,1489,22092,1020,11000,-752,-32768,16680
102973,2123,1487,1653,16692,9028,8200,-752,2963,18657
102983,2202,1481,1691,16848,2196,-6592,-736,28035,4103
102993,2169,1463,1495,32767,-19932,-19860,-768,15743,-11747
103003,2061,1447,1588,32767,-22340,-4900,-736,-32768,-32768
103013,2023,1453,1511,32767,-6216,32767,-768,-32768,-22665
103023,2058,1464,1326,29776,9268,15420,-768,19667,17535
103033,2078,1470,1579,15572,20616,1104,-784,32767,28261
103043,2103,1461,1775,-560,16816,-4024,-784,32767,32767
103053,2102,1452,1679,8628,16412,2832,-768,32767,32767
103063,2075,1459,1615,19748,32767,-20396,-752,7381,32767
103073,2066,1454,1621,5284,23228,-14512,-752,-23083,18456
103083,2072,1435,1655,2776,12492,-9488,-736,-32768,-7815
103093,2084,1429,1568,11716,6108,2260,-768,-32768,-29610
103103,2091,1419,1526,12824,6188,2452,-768,-32768,-32768
103113,2086,1421,1556,21492,-3824,4568,-752,-32768,-32768
103123,2091,1429,1570,19964,-3076,3768,-752,-32768,-32768
103133,2079,1428,1589,25340,-3088,4508,-784,-15736,-24274
103143,2078,1427,1583,27204,-3648,3924,-736,5691,-7054
103153,2059,1426,1582,25284,-2648,1744,-768,19348,9548
103163,2086,1427,1568,19204,988,-2284,-784,21731,19172
103173,2087,1421,1577,14884,4644,-4928,-800,20089,22586
103183,2075,1416,1589,11524,6044,-5396,-736,16427,18907
103193,2082,1414,1593,12000,6700,-7036,-720,10527,13117
103203,2084,1417,1591,12236,5988,-5016,-752,1274,3838
103213,2089,1421,1581,13072,3800,-3656,-736,-7752,-4819
103223,2084,1396,1565,14940,1172,-2572,-736,-14145,-10344
103233,2085,1396,1570,16116,384,1356,-768,-15203,-13734
103243,2086,1398,1571,17848,0,5124,-768,-9206,-11811
103253,2083,1396,1579,19176,-916,3336,-768,-435,-7982
103263,2083,1391,1582,19604,-972,1508,-752,6160,-2516
103273,2085,1389,1586,19312,-320,1040,-768,8678,3000
103283,2085,1391,1586,17740,-48,-1388,-752,7201,5920
103293,2084,1387,1581,15788,976,-2412,-784,4652,5444
103303,2085,1387,1587,14624,1480,-2540,-768,3026,2785
103313,2085,1384,1577,14508,1672,-3360,-752,1209,-881
103323,2084,1382,1583,15404,1232,-2892,-752,-1541,-3720
103333,2084,1363,1577,16748,776,-2372,-768,-4746,-4414
103343,2086,1380,1579,17492,-476,-1720,-736,-7058,-3792
103353,2085,1378,1589,17524,-1296,-884,-752,-7037,-2361
103363,2084,1377,1581,17464,-1976,-192,-752,-4752,-804
103373,2085,1373,1581,16964,-2640,-240,-768,-1775,335
103383,2086,1373,1580,16512,-2944,-864,-752,339,547
103393,2085,1371,1575,15952,-2688,-1320,-752,1169,227
103403,2086,1369,1573,15844,-2112,-1344,-768,1259,-271
103413,2078,1357,1579,15920,-1592,-1712,-768,1075,-1096
103423,2085,1365,1578,16340,-1200,-2252,-752,624,-1651
103433,2080,1351,1581,16684,-928,-2116,-768,-94,-1553
103443,2083,1365,1582,17060,-864,-1900,-736,-1036,-1005
103453,2083,1367,1581,16904,-1556,-1936,-736,-1902,-350
103463,2083,1375,1578,16668,-1964,-1468,-784,-1777,-132
103473,2084,1380,1575,16720,-2588,-1132,-752,-1006,-390
103483,2083,1363,1577,16724,-2384,-988,-784,-194,-597
103493,2085,1350,1577,16920,-1864,-1436,-768,432,-678
103503,2084,1363,1607,17028,-1356,-1612,-736,762,-589
103513,2084,1358,1578,17152,-956,-1468,-752,590,-191
103523,2085,1291,1587,16908,-912,-1548,-736,-44,205
103533,2085,1343,1583,16572,-924,-2144,-768,-744,214
103543,2085,1356,1575,16476,-1112,-2588,-720,-1244,-240
103553,2086,1364,1579,16412,-1412,-2308,-752,-1668,-677
103563,2085,1363,1583,16452,-1652,-2216,-768,-1721,-566
103573,2083,1353,1582,16756,-2444,-2244,-784,-2007,-361
103583,2079,1351,1587,16684,-2796,-1892,-752,-2040,-93
103593,2041,1294,1582,16592,-3324,-1456,-768,-1595,-42
103603,2084,1311,1587,16508,-3728,-1420,-736,-1269,68
103613,2084,1293,1583,16604,-3588,-1440,-784,-1087,-133
103623,2085,1274,1587,16508,-3404,-1492,-736,-490,-231
103633,2084,1277,1589,16672,-3120,-1800,-784,221,-259
103643,2084,1299,1583,16876,-2456,-1980,-720,733,-68
103653,2084,1333,1587,17004,-1860,-1992,-752,1014,190
103663,2083,1333,1579,16868,-1328,-1988,-736,1067,450
103673,2085,1325,1562,16668,-904,-2080,-752,887,565
103683,2085,1318,1577,16564,-796,-2180,-768,329,428
103693,2083,1320,1577,16604,-724,-1708,-768,-305,338
103703,2084,1301,1576,16604,-892,-2072,-752,-739,209
103713,2085,1295,1578,16744,-1020,-1920,-768,-826,-188
103723,2085,1331,1587,16828,-1464,-1580,-768,-600,-158
103733,2084,1331,1576,16976,-1380,-1052,-752,4,180
103743,2084,1321,1576,16672,-1004,-1204,-752,1058,560
103753,2083,1309,1573,16768,-684,-1520,-736,1589,651
103763,2085,1291,1577,16732,-404,-1884,-752,1175,603
103773,2085,1297,1578,16652,-368,-2036,-752,103,613
103783,2085,1276,1549,16392,-756,-1948,-736,-855,350
103793,2085,1291,1575,16456,-1152,-1568,-736,-1146,-123
103803,2085,1319,1575,16736,-1408,-1148,-784,-589,-410
103813,2084,1307,1574,16960,-1040,-924,-752,504,-166
103823,2085,1291,1577,17120,-920,-1668,-768,1079,428
103833,2084,1300,1577,16924,-956,-1848,-688,692,886
103843,2084,1311,1576,16648,-888,-1936,-720,22,871
103853,2083,1303,1575,16452,-952,-1976,-736,-436,425
103863,2085,1321,1573,16332,-1128,-1932,-736,-572,-167
103873,2079,1323,1574,16760,-1148,-1656,-752,-392,-158
103883,2083,1315,1574,17036,-1376,-1620,-736,-408,239
103893,2083,1311,1576,16868,-1584,-1588,-768,-541,650
103903,2085,1303,1575,16692,-1720,-1412,-752,-356,757
103913,2083,1290,1577,16604,-1864,-1544,-704,-5,437
103923,2085,1308,1576,16872,-1580,-1384,-736,327,197
103933,2085,1294,1577,16836,-1100,-1196,-736,565,273
103943,2085,1275,1577,16948,-1256,-1708,-736,359,472
103953,2085,1277,1578,16768,-1348,-1848,-768,-141,535
103963,2105,1290,1575,16484,-1252,-1520,-720,-169,379
103973,2083,1303,1573,16756,-1244,-1652,-736,126,116
103983,2085,1288,1576,16800,-1100,-1552,-736,529,73
103993,2085,1304,1575,16972,-972,-1328,-752,655,268
104003,2084,1293,1575,16884,-920,-1700,-736,166,661
104013,2085,1277,1565,16664,-1008,-1984,-768,-369,728
104023,2087,1278,1574,16576,-1108,-1492,-752,-363,333
104033,2084,1288,1572,16740,-1240,-1456,-688,-232,6
104043,2086,1269,1573,16904,-1076,-1412,-736,-77,21
104053,2083,1273,1575,16884,-1200,-1544,-736,-67,290
104063,2083,1290,1575,16968,-1460,-1528,-752,-252,541
104073,2083,1279,1574,16664,-1452,-1292,-736,-307,509
104083,2083,1269,1574,16612,-1564,-1592,-704,-11,258
104093,2084,1287,1575,16700,-1336,-1516,-704,227,129
104103,2083,1287,1583,16848,-1216,-1468,-752,67,246
104113,2077,1279,1576,16764,-1180,-1704,-720,-272,419
104123,2083,1285,1574,16684,-1296,-1604,-720,-442,437
104133,2083,1271,1566,16752,-1320,-1316,-752,-370,373
104143,2079,1195,1571,16628,-1292,-1444,-736,-203,204
104153,2077,1255,1573,16816,-1276,-1588,-720,-70,141
104163,2085,1255,1573,16828,-1220,-1472,-736,-14,305
104173,2083,1267,1573,16808,-1132,-1440,-704,-41,473
104183,2085,1262,1576,16756,-1284,-1428,-720,-74,478
104193,2085,1267,1575,16708,-1156,-1512,-736,-196,321
104203,2092,1275,1573,16696,-1272,-1492,-736,-336,237
104213,2083,1268,1573,16784,-1172,-1408,-752,-298,269
104223,2087,1273,1579,16900,-1200,-1624,-752,-267,311
104233,2085,1275,1576,16832,-1300,-1432,-736,-190,387
104243,2083,1273,1573,16756,-1220,-1200,-752,73,374
104253,2079,1261,1572,16780,-1084,-1372,-720,289,359
104263,2084,1263,1571,16672,-924,-1524,-736,261,403
104273,2083,1257,1574,16724,-964,-1484,-736,-43,405
104283,2083,1253,1573,16572,-1156,-1540,-752,-383,364
104293,2084,1252,1571,16564,-1200,-1624,-720,-500,257
104303,2083,1241,1568,16764,-1280,-1536,-768,-305,130
104313,2084,1257,1572,16828,-1360,-1548,-752,-115,86
104323,2085,1262,1572,16868,-1060,-1256,-720,74,281
104333,2085,1256,1571,16908,-988,-1320,-704,313,481
104343,2083,1253,1573,16748,-900,-1672,-704,183,529
104353,2085,1264,1571,16628,-1040,-1844,-736,-119,404
104363,2085,1269,1572,16704,-1092,-1764,-736,-357,158
104373,2083,1271,1568,16784,-1168,-1504,-736,-447,17
104383,2080,1269,1572,16740,-1228,-1568,-736,-288,170
104393,2085,1291,1571,16944,-1324,-1500,-736,-248,385
104403,2083,1259,1571,16844,-1416,-1436,-752,-246,543
104413,2083,1243,1572,16688,-1380,-1544,-752,-75,532
104423,2085,1245,1571,16592,-1460,-1556,-736,-63,384
104433,2084,1255,1572,16700,-1484,-1444,-784,-144,290
104443,2077,1259,1567,16868,-1456,-1352,-752,-249,323
104453,2085,1263,1571,16820,-1308,-1416,-736,-211,354
104463,2085,1258,1571,16752,-1380,-1496,-704,-166,368
104473,2083,1253,1573,16780,-1456,-1380,-752,-148,418
104483,2083,1199,1567,16584,-1444,-1492,-768,-59,424
104493,2083,1239,1573,16704,-1140,-1332,-736,181,368
104503,2083,1253,1572,16656,-1176,-1580,-720,238,356
104513,2084,1247,1571,16676,-1108,-1672,-784,-28,413
104523,2083,1243,1567,16724,-1104,-1268,-736,-82,510
104533,2085,1240,1567,16688,-1292,-1300,-736,-68,474
104543,2109,1230,1571,16732,-1424,-1392,-768,-110,265
104553,2084,1243,1567,16804,-1356,-1176,-736,-68,283
104563,2083,1235,1566,16784,-1164,-1232,-736,257,384
104573,2084,1229,1567,16856,-992,-1532,-736,476,432
104583,2083,1239,1568,16748,-1008,-1384,-736,497,539
104593,2085,1255,1566,16840,-656,-1484,-720,219,570
104603,2084,1237,1567,16780,-752,-1384,-720,-171,515
104613,2085,1229,1567,16548,-824,-1296,-704,-429,380
104623,2084,1246,1571,16736,-988,-1188,-720,-549,222
104633,2077,1238,1567,16720,-1076,-1344,-720,-491,158
104643,2084,1241,1571,16852,-1172,-1100,-736,-110,188
104653,2083,1240,1567,17028,-1080,-1100,-768,214,352
104663,2085,1257,1563,16860,-996,-1056,-720,259,590
104673,2083,1243,1567,16684,-860,-1504,-768,83,578
104683,2079,1233,1565,16620,-1032,-1568,-736,-177,311
104693,2083,1237,1567,16604,-1028,-1284,-720,-388,158
104703,2083,1231,1565,16712,-1216,-1400,-720,-470,187
104713,2083,1235,1571,16792,-1224,-1104,-736,-362,226
104723,2085,1234,1568,16852,-1216,-1096,-752,-85,355
104733,2083,1244,1567,16792,-1100,-1296,-736,33,507
104743,2085,1237,1566,16804,-1004,-1480,-736,64,562
104753,2083,1214,1567,16740,-1020,-1436,-752,-99,423
104763,2085,1224,1564,16652,-1256,-1308,-704,-274,280
104773,2084,1235,1565,16720,-1172,-1332,-768,-205,125
104783,2085,1229,1566,16800,-1016,-1100,-736,32,89
104793,2084,1235,1566,17000,-1016,-1272,-704,203,237
104803,2083,1239,1565,16772,-1072,-1176,-736,256,473
104813,2083,1235,1565,16640,-904,-1308,-752,208,478
104823,2083,1235,1567,16580,-1016,-1500,-752,32,405
104833,2083,1236,1565,16584,-1060,-1524,-736,-199,269
104843,2083,1235,1567,16696,-1152,-1272,-752,-321,163
104853,2083,1238,1565,16748,-1240,-984,-752,-288,161
104863,2083,1225,1565,16876,-1260,-1012,-736,-158,258
104873,2084,1213,1567,16880,-1156,-928,-768,32,314
104883,2083,1209,1567,16860,-940,-1096,-720,270,315
104893,2086,1225,1565,16800,-792,-984,-704,456,338
104903,2079,1215,1565,16684,-592,-1436,-768,416,368
104913,2083,1233,1565,16884,-504,-1528,-736,103,338
104923,2083,1236,1564,16976,-580,-1492,-720,-402,296
104933,2084,1259,1564,16664,-824,-1400,-736,-592,177
104943,2053,1253,1564,16844,-948,-1260,-720,-574,69
104953,2083,1235,1563,16792,-1060,-1096,-720,-243,144
104963,2083,1231,1564,16908,-980,-976,-736,127,304
104973,2084,1233,1565,16816,-928,-1212,-768,278,501
104983,2079,1228,1566,16792,-1044,-1296,-736,39,504
104993,2085,1225,1567,16580,-1172,-1292,-736,-320,287
105003,2083,1225,1564,16584,-1144,-1172,-752,-435,-16
105013,2083,1229,1565,16816,-1244,-1084,-736,-279,-78
105023,2083,1208,1564,16856,-1320,-992,-736,-103,115
105033,2083,1207,1567,16736,-1268,-1148,-752,79,314
105043,2083,1210,1566,16712,-1224,-1196,-752,214,368
105053,2085,1223,1595,16680,-1088,-1428,-736,238,197
105063,2083,1226,1573,16984,-1004,-1332,-720,174,98
105073,2079,1222,1564,16852,-952,-1472,-720,-137,153
105083,2079,1223,1564,16760,-1040,-1420,-736,-422,300
105093,2083,1224,1567,16768,-1208,-1248,-704,-442,278
105103,2082,1215,1564,16768,-1332,-1196,-720,-327,162
105113,2083,1215,1564,16780,-1212,-1180,-752,27,122
105123,2083,1211,1550,16852,-1160,-1032,-736,235,229
105133,2084,1209,1563,16828,-1164,-1348,-720,32,407
105143,2084,1211,1565,16640,-1040,-1168,-736,-119,365
105153,2084,1215,1563,16604,-1132,-1204,-704,-11,100
105163,2083,1215,1563,16732,-1112,-1236,-752,-72,-45
105173,2079,1213,1563,16716,-1088,-1376,-704,-146,-27
105183,2084,1215,1560,16840,-1172,-1280,-768,-81,132
105193,2083,1213,1561,16696,-1072,-1308,-768,40,252
105203,2084,1204,1565,16740,-1116,-1460,-736,96,322
105213,2087,1204,1564,16660,-1168,-1264,-736,-1,280
105223,2083,1209,1563,16684,-1024,-1308,-752,-110,154
105233,2085,1208,1563,16776,-1028,-1252,-736,-155,86
105243,2084,1209,1564,16844,-1120,-1148,-704,-146,93
105253,2084,1213,1563,16880,-1104,-1160,-752,-14,213
105263,2080,1213,1561,16792,-1080,-1148,-752,57,274
105273,2083,1226,1561,16648,-1036,-1412,-736,73,267
105283,2079,1225,1563,16740,-1116,-1440,-736,-43,143
105293,2083,1213,1563,16788,-1064,-1184,-720,-133,84
105303,2077,1221,1561,16836,-1080,-1248,-736,-66,93
105313,2083,1208,1565,16764,-1160,-1096,-736,5,163
105323,2084,1261,1561,16824,-1180,-1260,-704,90,276
105333,2083,1209,1563,16736,-1104,-1380,-752,58,275
105343,2083,1206,1561,16744,-1088,-1296,-752,61,344
105353,2079,1208,1563,16700,-960,-1240,-720,85,193
105363,2083,1205,1562,16708,-964,-1412,-720,28,75
105373,2080,1210,1563,16860,-880,-1196,-752,-121,149
105383,2084,1199,1562,16716,-1072,-1224,-720,-144,184
105393,2091,1214,1563,16720,-920,-1296,-704,-62,132
105403,2079,1223,1563,16784,-864,-1216,-736,41,156
105413,2083,1203,1563,16760,-968,-1328,-720,142,163
105423,2083,1207,1561,16844,-1036,-1240,-768,-124,200
105433,2083,1203,1561,16676,-1140,-1140,-736,-297,240
105443,2083,1199,1561,16624,-1048,-1328,-752,-164,186
105453,2084,1195,1563,16820,-1256,-1208,-736,-34,145
105463,2080,1163,1559,16876,-1272,-1140,-736,-54,93
105473,2085,1212,1564,16888,-1148,-1380,-752,65,117
105483,2083,1208,1562,16820,-1136,-1132,-752,237,214
105493,2083,1205,1563,16764,-1020,-1272,-736,292,271
105503,2079,1215,1564,16740,-1088,-1544,-704,96,217
105513,2080,1215,1561,16644,-1028,-1264,-720,68,103
105523,2073,1223,1560,16900,-884,-1372,-736,206,75
105533,2083,1205,1561,16816,-892,-1356,-768,109,199
105543,2083,1209,1561,16772,-984,-1408,-688,-124,294
105553,2085,1211,1561,16752,-1024,-1360,-704,-202,277
105563,2079,1199,1559,16744,-1092,-1292,-736,-132,224
105573,2073,1209,1560,16648,-1128,-1304,-720,-149,179
105583,2083,1227,1561,16784,-1156,-1296,-720,-121,219
105593,2083,1203,1561,16672,-1096,-1196,-736,-46,253
105603,2083,1196,1558,16784,-1060,-1220,-720,101,241
105613,2083,1192,1560,16780,-1100,-1368,-704,99,194
105623,2085,1194,1560,16796,-1188,-1372,-736,-90,193
105633,2083,1199,1560,16812,-1124,-1296,-720,-191,189
105643,2084,1189,1560,16676,-1108,-1232,-672,0,169
105653,2083,1193,1561,16776,-1064,-1288,-704,209,179
105663,2083,1203,1561,16808,-1016,-1332,-752,146,197
105673,2083,1199,1561,16852,-1072,-1408,-720,-67,314
105683,2083,1197,1562,16652,-1016,-1300,-736,-91,330
105693,2083,1180,1561,16680,-1088,-1184,-720,-40,231
105703,2083,1194,1559,16756,-1020,-1220,-752,-55,165
105713,2079,1192,1562,16828,-1100,-1344,-736,-85,204
105723,2084,1204,1559,16744,-1064,-1160,-736,-55,220
105733,2083,1197,1561,16748,-1028,-1324,-704,-57,238
105743,2083,1195,1560,16784,-1056,-1320,-736,-47,204
105753,2079,1197,1560,16764,-1104,-1220,-736,14,19
105763,2083,1203,1561,16832,-1028,-1308,-720,-3,243
105773,2083,1194,1585,16784,-1092,-1428,-736,-141,264
105783,2083,1197,1560,16636,-1088,-1176,-720,-163,229
105793,2079,1203,1561,16808,-1016,-1172,-720,-37,138
105803,2085,1199,1559,16764,-1044,-1308,-736,18,132
105813,2085,1198,1557,16792,-948,-1396,-720,-16,197
105823,2083,1208,1559,16896,-952,-1252,-720,-101,269
105833,2083,1202,1556,16784,-1004,-1292,-736,-111,255
105843,2073,1195,1560,16760,-980,-1372,-704,-96,250
105853,2079,1196,1560,16784,-1032,-1436,-736,-109,211
105863,2079,1199,1559,16748,-928,-1304,-736,-110,211
105873,2079,1199,1558,16768,-1036,-1208,-704,-144,267
105883,2079,1197,1559,16896,-1304,-1384,-752,-308,275
105893,2083,1197,1557,16676,-1304,-1232,-720,-308,192
105903,2085,1193,1557,16692,-1260,-1184,-736,0,132
105913,2083,1191,1560,16768,-1264,-1356,-752,225,183
105923,2083,1203,1559,16840,-1032,-1212,-752,247,212
105933,2083,1195,1558,16836,-960,-1132,-736,186,280
105943,2080,1195,1558,16792,-752,-1376,-704,62,262
105953,2083,1181,1559,16588,-860,-1296,-736,-60,203
105963,2084,1191,1557,16756,-992,-1220,-736,-139,131
105973,2083,1187,1559,16792,-936,-1384,-720,-219,108
105983,2079,1189,1557,16768,-816,-1240,-768,-195,189
105993,2083,1189,1559,16740,-972,-1124,-736,-186,296
106003,2083,1192,1558,16712,-960,-1360,-720,-215,301
106013,2079,1192,1557,16664,-1044,-1264,-720,-209,264
106023,2079,1193,1557,16764,-1036,-1188,-736,-155,229
106033,2083,1191,1557,16816,-1192,-1212,-752,-133,160
106043,2079,1194,1557,16816,-1264,-1268,-720,-166,158
106053,2083,1195,1559,16788,-1048,-1296,-736,1,189
106063,2083,1198,1557,16856,-1040,-1176,-736,186,201
106073,2078,1197,1555,16864,-1072,-1344,-720,107,274
106083,2083,1199,1558,16748,-944,-1320,-736,-50,328
106093,2083,1193,1559,16640,-1124,-1356,-736,-85,223
106103,2085,1193,1558,16852,-1084,-1164,-720,-58,131
106113,2079,1191,1556,16904,-968,-1280,-720,-42,172
106123,2083,1188,1559,16788,-1052,-1268,-704,-86,264
106133,2083,1193,1556,16796,-1108,-1140,-736,-135,359
106143,2083,1203,1557,16632,-1128,-1224,-736,-131,365
106153,2085,1194,1557,16732,-1092,-1272,-736,-173,263
106163,2079,1191,1555,16696,-1188,-1176,-736,-127,88
106173,2084,1192,1557,16764,-1168,-1136,-736,78,135
106183,2083,1193,1557,16900,-1136,-1160,-704,214,170
106193,2083,1190,1557,16828,-916,-1228,-720,164,314
106203,2083,1189,1558,16672,-1012,-1292,-736,62,370
106213,2084,1192,1557,16680,-956,-1528,-736,-124,272
106223,2084,1224,1557,16848,-1032,-1140,-720,-222,169
106233,2083,1188,1557,16756,-1020,-1336,-752,-165,87
106243,2083,1181,1541,16800,-992,-1264,-704,-170,107
106253,2083,1180,1557,16836,-1080,-1156,-704,-121,249
106263,2083,1183,1557,16828,-1128,-1116,-704,-88,367
106273,2082,1180,1556,16688,-1064,-1068,-704,28,326
106283,2083,1184,1555,16664,-1088,-1288,-736,-22,171
106293,2083,1183,1551,16772,-1216,-1192,-720,-158,74
106303,2065,1191,1553,16928,-1172,-1264,-720,-111,106
106313,2083,1183,1556,16880,-1140,-1112,-736,15,157
106323,2079,1188,1557,16784,-1160,-1148,-720,122,250
106333,2079,1195,1557,16776,-1064,-1320,-720,69,244
106343,2084,1195,1557,16764,-920,-1224,-736,39,251
106353,2085,1189,1559,16740,-952,-1172,-736,-37,211
106363,2087,1183,1557,16776,-1112,-1488,-704,-153,163
106373,2083,1188,1528,16780,-1036,-1236,-704,-226,141
106383,2080,1189,1557,16784,-1144,-1112,-704,-126,224
106393,2083,1181,1557,16728,-1240,-1232,-736,-33,244
106403,2082,1181,1555,16712,-1120,-1248,-736,0,192
106413,2080,1189,1556,16720,-996,-1220,-720,6,151
106423,2079,1189,1555,16780,-1000,-1236,-720,52,170
106433,2079,1184,1555,16836,-924,-1288,-704,110,174
106443,2078,1183,1555,16904,-900,-1416,-720,26,155
106453,2079,1181,1557,16752,-952,-1248,-752,-36,240
106463,2083,1183,1555,16768,-872,-1200,-704,-8,266
106473,2083,1191,1555,16744,-1000,-1188,-736,-85,218
106483,2075,1189,1555,16828,-1100,-1240,-752,-199,131
106493,2084,1183,1556,16724,-1040,-1044,-704,-77,165
106503,2083,1180,1555,16820,-1104,-1284,-736,4,158
106513,2082,1179,1551,16780,-1164,-1376,-720,-81,150
106523,2079,1180,1554,16860,-1224,-1144,-752,-60,139
106533,2080,1181,1553,16856,-1140,-1208,-736,83,115
106543,2079,1157,1553,16844,-1100,-1304,-720,202,123
106553,2079,1179,1554,16788,-1036,-1296,-720,207,148
106563,2079,1190,1555,16876,-972,-1216,-704,92,239
106573,2083,1182,1555,16732,-1036,-1344,-736,-43,412
106583,2083,1181,1549,16544,-1132,-1432,-720,-150,128
106593,2080,1183,1555,16756,-1164,-1192,-704,-129,60
106603,2078,1178,1556,16788,-1168,-1040,-736,-73,94
106613,2083,1175,1553,16788,-1156,-1152,-704,-25,203
106623,2079,1177,1555,16784,-1168,-1184,-720,2,281
106633,2079,1177,1555,16812,-1204,-1100,-720,39,280
106643,2060,1179,1555,16728,-1172,-1368,-704,6,150
106653,2079,1177,1578,16628,-1096,-1220,-736,-23,67
106663,2084,1177,1554,16748,-1268,-1072,-704,-86,70
106673,2083,1175,1555,16768,-1460,-1092,-720,-267,35
106683,2079,1163,1555,16744,-1756,-1516,-768,-561,38
106693,2079,1159,1557,16400,-2412,-1632,-672,-788,111
106703,2085,1145,1559,15988,-3104,-1568,-720,-690,273
106713,2083,1146,1558,16104,-3480,-1328,-736,23,215
106723,2084,1135,1555,16600,-3116,-1004,-736,1194,26
106733,2079,1123,1559,17012,-3332,-1296,-720,1531,170
106743,2083,1127,1563,17236,-3536,-1492,-720,753,648
106753,2079,1128,1566,16936,-4396,-1468,-704,-333,1138
106763,2083,1105,1563,16456,-5300,-1564,-752,-1114,1199
106773,2083,1093,1560,15900,-6132,-1432,-720,-934,862
106783,2083,1113,1557,15752,-6468,-1908,-736,-73,576
106793,2091,1149,1549,16080,-5984,-2056,-736,1128,531
106803,2079,1156,1548,16392,-5492,-2680,-752,2042,813
106813,2077,1127,1546,16468,-5348,-3180,-720,2094,1142
106823,2079,1190,1544,16888,-4492,-2072,-704,1526,1683
106833,2078,1207,1529,16720,-3772,-1348,-720,1239,2444
106843,2079,1245,1547,16536,-3632,-1196,-720,741,2908
106853,2083,1302,1549,17064,-2780,-492,-704,222,2521
106863,2076,1297,1548,17232,-2660,-876,-704,-15,1525
106873,2084,1262,1559,17000,-3588,-1220,-704,-839,1168
106883,2077,1077,1555,16400,-4424,-756,-736,-2072,1802
106893,2073,1076,1547,15108,-4192,1744,-752,-2458,3612
106903,2083,1103,1522,14340,-1328,4760,-704,1430,5019
106913,2080,1252,1516,14316,2364,3572,-768,7106,4201
106923,2087,1263,1529,14072,6752,984,-752,12493,1359
106933,2083,1342,1564,15532,8532,-1412,-752,11469,-146
106943,2083,1235,1574,16308,10268,-2624,-704,5363,181
106953,2079,1094,1563,15940,7856,-4784,-736,-5880,1152
106963,2079,991,1557,16000,5780,-2216,-736,-13106,-64
106973,2079,938,1529,16284,3488,596,-736,-12278,-3439
106983,2079,1132,1531,15300,1524,-260,-672,-9819,-4489
106993,2083,1400,1545,16296,352,-280,-688,-7868,-2783
107003,2083,1367,1551,17428,308,1252,-752,-7003,461
107013,2085,1331,1547,17792,992,1892,-736,-4234,1821
107023,2083,1267,1545,16956,1848,-388,-720,703,599
107033,2082,1213,1544,14812,2392,-2344,-720,4866,-77
107043,2083,1192,1543,14340,3964,-3064,-736,6228,400
107053,2083,1184,1529,15100,5892,-3848,-736,5444,316
107063,2083,1179,1526,16420,7968,-4668,-704,2930,-894
107073,2077,1177,1561,16912,7540,-5188,-736,-1250,-1348
107083,2084,1177,1567,17256,6752,-3400,-720,-5104,-183
107093,2089,1173,1565,17080,5052,-340,-736,-6569,1423
107103,2083,1175,1567,15308,3212,116,-736,-3776,2549
107113,2084,1174,1561,15268,3836,1364,-720,1942,2944
107123,2083,1176,1567,16556,5324,1500,-784,7133,2164
107133,2077,1161,1558,16908,7472,4,-736,9128,1853
107143,2084,1175,1564,17256,9232,-1832,-752,8345,2148
107153,2079,1173,1571,16492,11000,-888,-720,6426,3273
107163,2079,1174,1589,15880,13176,-308,-736,6907,4423
107173,2085,1174,1583,17716,14404,748,-736,6622,4564
107183,2075,1172,1645,18260,15088,1896,-720,5717,4163
107193,2077,1172,1583,18992,15148,1860,-768,6205,3231
107203,2073,1173,1512,19892,17324,3188,-720,9199,1959
107213,2079,1171,1472,20312,20192,556,-720,13216,706
107223,2087,1171,1459,22328,22392,-1284,-752,13658,59
107233,2088,1172,1499,23984,23120,-1764,-752,10070,12
107243,2099,1173,1509,25856,22648,-3200,-720,5214,-735
107253,2103,1174,1529,31916,16712,-2808,-736,-968,-4474
107263,2071,1172,1471,32767,8116,1356,-736,-10022,-9986
107273,2091,1172,1400,32767,1968,6280,-720,-14012,-10119
107283,2083,1171,1404,32767,-1696,5064,-736,-10976,-4453
107293,2057,1131,1496,28412,-1448,4632,-736,-4226,2162
107303,2023,1179,1651,21668,1436,1688,-784,2470,7464
107313,2073,1176,1687,14256,2480,-4784,-736,2895,9962
107323,2089,1003,1559,10432,4964,-9980,-768,-4938,14843
107333,2123,946,1507,4972,-1344,-11364,-720,-18127,19092
107343,2095,925,1498,4564,-7328,-10360,-736,-30288,17971
107353,2075,1081,1397,4372,-13652,-4532,-736,-32768,11836
107363,2089,1269,1501,4288,-10436,372,-736,-32666,1800
107373,2089,1261,1579,1220,-8668,5776,-704,-15351,-4684
107383,2076,1348,1643,3764,-11176,4080,-768,1549,-6674
107393,2073,1074,1595,7696,-10428,-532,-720,5907,-4456
107403,2085,1036,1583,6796,-7092,-340,-720,5117,-1121
107413,2085,1368,1597,4292,-2520,-2084,-768,5503,3185
107423,2079,1556,1587,3248,-1444,-3884,-720,5903,6533
107433,2074,1469,1575,1916,-1684,-3288,-752,4432,8214
107443,2085,1213,1553,876,-2472,-996,-736,1952,9256
107453,2070,1062,1578,-496,-3000,1528,-736,-413,10239
107463,2076,949,1578,-2172,-5008,2004,-752,-1504,8559
107473,2079,932,1529,-1656,-7620,1260,-768,-1803,4693
107483,2079,979,1503,-900,-9084,-988,-720,-2274,-1151
107493,2088,942,1481,-124,-9140,-1576,-736,-1231,-5026
107503,2091,947,1517,1504,-7120,244,-752,2294,-4550
107513,2093,1335,1607,3888,-6184,2068,-720,7386,-1922
107523,2091,1246,1682,6320,-4420,2372,-752,13183,-1179
107533,2043,103,1563,9808,-8068,5348,-736,13981,3386
107543,2149,459,1597,10368,-2400,-9132,-736,14900,-5769
107553,2124,2430,1608,12160,-4940,-11576,-736,27964,-20999
107563,1998,799,1239,30604,-748,-23844,-736,28299,-29656
107573,2046,1235,1565,28832,7440,21200,-768,29749,-32768
107583,1983,909,1659,30144,17824,-13772,-752,23441,-32768
107593,2003,777,1267,31440,14628,-6108,-720,-16673,6974
107603,2007,757,1439,23492,7228,4012,-736,-32768,32038
107613,2174,793,1561,10356,21076,8792,-784,-23819,32767
107623,2248,759,1912,4732,18292,-7612,-704,12617,19699
107633,2167,749,1459,32767,-30388,-32768,-704,13585,-16604
107643,2019,701,1466,32767,-12692,6264,-768,-32768,-32768
107653,1995,740,1389,32767,-10884,32767,-768,-32768,-28871
107663,2069,799,1216,26308,16460,20548,-736,16269,15719
107673,2093,781,1675,9524,19764,-3268,-720,32767,26428
107683,2111,778,1781,3732,17944,-6412,-752,32767,32767
107693,2099,787,1657,14660,14060,-12804,-768,32767,32767
107703,2069,799,1541,25064,32767,-24484,-736,1414,32767
107713,2055,799,1586,6408,24788,-8528,-736,-19039,8058
107723,2079,797,1633,4064,13804,-9428,-768,-25140,-13066
107733,2091,792,1567,9920,7436,-2724,-768,-29858,-26849
107743,2087,794,1561,6872,372,-11104,-752,-32768,-32768
107753,2088,806,1518,21248,-520,7956,-736,-32768,-32768
107763,2079,810,1555,21360,-1260,9344,-752,-31534,-25542
107773,2075,820,1567,23920,-3048,8908,-752,-11321,-9911
107783,2079,820,1574,21520,-5324,5648,-768,8260,3889
107793,2085,827,1567,19780,-4424,76,-768,18919,12051
107803,2085,827,1561,14356,-2984,-780,-720,18837,14646
107813,2085,837,1561,13844,1924,-2524,-736,16956,14179
107823,2078,839,1567,11336,2904,-4276,-768,12913,9682
107833,2079,839,1572,12888,4524,-6308,-784,6500,3081
107843,2077,841,1573,12960,3648,-4028,-768,-1344,-2624
107853,2093,857,1565,14952,1132,-3648,-752,-8553,-6118
107863,2079,847,1559,16408,-1588,-1524,-752,-13772,-7789
107873,2083,854,1558,17080,-2336,1260,-736,-13863,-7978
107883,2079,857,1566,17616,-3948,2644,-752,-8379,-5247
107893,2083,862,1574,18104,-5168,2084,-752,-1754,-2000
107903,2083,870,1582,17924,-5156,2268,-768,2890,1069
107913,2086,861,1575,17104,-5300,388,-736,4867,2539
107923,2085,856,1565,16104,-4868,-1800,-752,4219,1474
107933,2079,861,1562,15352,-3616,-1876,-832,3257,-516
107943,2085,869,1559,15872,-2308,-2044,-768,3094,-2646
107953,2061,873,1555,16616,-1288,-2972,-784,2758,-4300
107963,2079,879,1564,17728,464,-3056,-752,2216,-4266
107973,2083,884,1567,18172,1544,-2576,-800,1522,-2329
107983,2079,889,1574,18436,1688,-2860,-736,-232,277
107993,2089,892,1575,17816,1376,-2588,-768,-2267,2175
108003,2083,905,1573,16640,224,-1456,-736,-3827,2745
108013,2085,918,1565,15884,-988,-432,-768,-4060,1871
108023,2083,921,1559,15492,-1776,-280,-768,-3444,233
108033,2084,939,1541,15628,-2244,-488,-736,-2014,-1628
108043,2080,968,1558,16472,-2312,-460,-752,-474,-2767
108053,2083,983,1560,16908,-1972,-632,-720,880,-2749
108063,2079,975,1562,17340,-1264,-1392,-736,1958,-1541
108073,2079,973,1565,17168,-536,-1504,-752,2451,-68
108083,2076,947,1563,16728,-620,-1568,-752,2029,1005
108093,2079,889,1560,16128,-1136,-1972,-736,634,998
108103,2079,871,1563,15908,-1832,-1840,-768,-799,-122
108113,2083,862,1562,16148,-2052,-1352,-784,-1712,-1674
108123,2079,872,1559,16708,-2168,-1492,-736,-1805,-2634
108133,2079,889,1571,16924,-2344,-1508,-736,-1127,-2508
108143,2079,877,1567,17484,-2128,-2140,-720,-375,-1642
108153,2083,911,1567,17108,-2592,-2496,-752,-341,-438
108163,2084,907,1567,16560,-2744,-2624,-736,-639,296
108173,2083,895,1573,16220,-3316,-2704,-736,-1037,277
108183,2079,875,1579,16088,-3736,-2508,-736,-1490,-167
108193,2079,873,1573,16152,-4076,-2380,-768,-1695,-810
108203,2083,885,1579,16548,-4584,-2356,-768,-1793,-670
108213,2079,901,1567,16740,-4500,-1944,-752,-1499,-468
108223,2083,884,1574,16860,-4192,-1732,-736,-566,-27
108233,2073,895,1556,16784,-3656,-1768,-720,484,461
108243,2083,904,1567,16708,-2960,-2220,-720,1076,993
108253,2079,915,1565,16452,-2256,-2356,-736,1274,1173
108263,2080,927,1564,16400,-1648,-2332,-752,1240,945
108273,2078,941,1561,16644,-1064,-2212,-752,655,786
108283,2079,938,1564,16748,-704,-2044,-736,-270,785
108293,2083,919,1563,16844,-660,-1512,-768,-867,805
108303,2079,915,1561,16868,-708,-1308,-752,-1087,781
108313,2083,943,1559,16608,-1044,-964,-736,-937,707
108323,2083,953,1559,16616,-976,-632,-704,-415,647
108333,2079,949,1555,16684,-888,-912,-720,189,449
108343,2079,970,1559,16708,-876,-1344,-752,171,200
108353,2079,941,1559,16812,-760,-1708,-768,67,90
108363,2079,990,1548,16876,-872,-1704,-752,264,16
108373,2083,989,1549,16996,-408,-1360,-752,920,58
108383,2079,981,1553,17052,28,-1428,-736,1559,272
108393,2082,974,1560,16868,168,-2212,-736,1451,674
108403,2083,959,1560,16712,-40,-2120,-752,382,869
108413,2080,968,1549,16536,-388,-1740,-736,-728,631
108423,2075,954,1557,16500,-808,-1692,-768,-1248,155
108433,2079,949,1560,16616,-1124,-1616,-768,-1204,-141
108443,2082,947,1563,16860,-1796,-1552,-752,-992,-56
108453,2083,967,1560,17064,-1968,-1484,-720,-658,178
108463,2081,1001,1557,16988,-1444,-964,-752,159,530
108473,2083,984,1558,16876,-1104,-1444,-752,827,849
108483,2079,973,1559,16648,-712,-1972,-736,484,886
108493,2083,975,1560,16492,-928,-1960,-752,-548,654
108503,2083,970,1559,16412,-1092,-1772,-736,-1298,203
108513,2079,984,1557,16700,-1372,-1500,-736,-1365,-191
108523,2079,973,1557,16784,-1596,-1288,-736,-874,-67
108533,2079,972,1559,16972,-1704,-1308,-768,-429,360
108543,2080,979,1556,16900,-1660,-1232,-736,-74,695
108553,2079,983,1555,16668,-1540,-1380,-720,304,766
108563,2083,983,1553,16500,-1316,-1512,-752,397,614
108573,2085,984,1555,16700,-1188,-1608,-736,143,290
108583,2080,985,1557,16732,-1100,-1548,-784,-133,180
108593,2079,973,1560,16820,-1240,-1656,-720,-342,280
108603,2079,979,1559,16864,-1304,-1432,-736,-317,458
108613,2083,996,1559,16756,-1440,-1028,-768,-11,356
108623,2080,975,1558,16788,-1268,-1204,-752,427,408
108633,2079,971,1557,16876,-972,-1616,-736,522,291
108643,2083,984,1555,16864,-960,-1684,-736,136,276
108653,2078,999,1554,16784,-1144,-1496,-752,-388,347
108663,2079,995,1555,16652,-1264,-1600,-704,-523,272
108673,2079,991,1555,16652,-1456,-1432,-752,-197,56
108683,2079,991,1553,16644,-1568,-1144,-752,32,86
108693,2079,984,1555,16820,-1484,-1532,-752,17,280
108703,2082,988,1554,16544,-1436,-1328,-736,124,345
108713,2039,989,1563,16728,-1252,-1232,-752,417,287
108723,2083,955,1555,16792,-1088,-1348,-736,447,235
108733,2079,1001,1559,16776,-756,-1864,-736,23,168
108743,2079,1017,1559,16848,-948,-1420,-768,-369,240
108753,2079,1014,1555,16776,-1192,-1164,-736,-366,256
108763,2079,1004,1551,16764,-1132,-1312,-736,-49,160
108773,2079,1011,1553,16756,-988,-1404,-752,463,135
108783,2083,1003,1549,16848,-1172,-1592,-752,418,257
108793,2079,995,1551,16748,-1180,-1408,-768,23,376
108803,2083,995,1547,16648,-1128,-1208,-720,-63,274
108813,2077,991,1546,16780,-1188,-1488,-752,103,87
108823,2079,990,1553,16648,-1116,-1704,-768,124,55
108833,2109,984,1555,16812,-1228,-1640,-736,14,242
108843,2079,995,1555,16908,-1060,-1632,-736,-73,350
108853,2079,1011,1555,16804,-1040,-1632,-704,3,278
108863,2078,1017,1551,16820,-900,-1540,-736,92,182
108873,2079,1031,1551,16848,-880,-1240,-784,117,254
108883,2079,1011,1554,16748,-832,-1372,-752,144,351
108893,2079,1011,1543,16692,-812,-1356,-736,163,302
108903,2075,1022,1555,16780,-652,-1288,-720,-8,262
108913,2079,1019,1555,16676,-712,-1544,-752,-209,247
108923,2079,1013,1554,16872,-1016,-1456,-736,-211,118
108933,2084,1023,1553,16788,-1076,-1136,-768,-157,131
108943,2079,1018,1549,16848,-1020,-1340,-768,-31,189
108953,2067,1013,1542,16752,-912,-1524,-704,138,289
108963,2083,1021,1549,16776,-1008,-1400,-736,2,375
108973,2085,1031,1549,16696,-968,-1504,-704,-194,303
108983,2079,1019,1551,16628,-924,-1492,-736,-198,124
108993,2078,1014,1553,16776,-852,-1580,-720,-158,8
109003,2079,1017,1547,16972,-976,-1368,-736,-142,54
109013,2077,1035,1547,17012,-820,-1384,-768,-24,291
109023,2079,1023,1549,16896,-952,-1412,-752,109,413
109033,2079,1033,1553,16664,-932,-1596,-752,138,371
109043,2079,1053,1553,16664,-960,-1448,-704,-55,239
109053,2079,1031,1547,16560,-988,-1300,-752,-181,132
109063,2079,1021,1549,16664,-1032,-1444,-752,-252,168
109073,2079,1034,1547,16776,-1144,-1552,-736,-257,168
109083,2076,1041,1553,16844,-1116,-1476,-736,-44,191
109093,2083,1044,1547,16908,-952,-1332,-752,113,305
109103,2079,1035,1553,16764,-1040,-1312,-752,204,448
109113,2079,1031,1549,16656,-1016,-1644,-752,86,502
109123,2079,1045,1549,16552,-936,-1484,-752,-124,354
109133,2091,1039,1550,16644,-708,-1292,-736,38,169
109143,2084,1035,1549,16892,-680,-1480,-752,4,86
109153,2078,1031,1548,16928,-880,-1568,-752,-389,254
109163,2079,1042,1547,16696,-932,-1380,-736,-521,373
109173,2079,1039,1546,16652,-1032,-1380,-752,-224,346
109183,2079,1002,1565,16744,-800,-1452,-752,177,213
109193,2079,1047,1549,16960,-788,-1432,-736,146,216
109203,2079,1043,1547,16836,-920,-1468,-736,-156,346
109213,2079,1045,1545,16680,-808,-1288,-720,-112,401
109223,2077,1041,1545,16740,-576,-1272,-736,208,286
109233,2079,1039,1547,16744,-672,-1368,-736,147,271
109243,2077,1039,1546,16832,-684,-1656,-784,-317,320
109253,2083,1035,1548,16592,-928,-1456,-752,-521,289
109263,2079,1043,1545,16568,-1148,-1416,-736,-345,192
109273,2079,1047,1546,16736,-924,-1364,-736,26,117
109283,2077,1049,1546,16936,-948,-1272,-752,252,149
109293,2079,1045,1545,16868,-776,-1356,-736,353,316
109303,2089,1048,1545,16780,-724,-1372,-736,293,364
109313,2077,1052,1546,16640,-784,-1516,-736,241,259
109323,2076,1051,1546,16724,-648,-1516,-752,191,100
109333,2079,1049,1544,16756,-692,-1548,-752,161,64
109343,2079,1056,1545,16780,-636,-1520,-752,-94,183
109353,2083,1054,1546,16852,-696,-1416,-752,-90,295
109363,2078,1049,1549,16704,-764,-1464,-736,0,292
109373,2083,1054,1544,16708,-860,-1644,-720,-156,229
109383,2079,1049,1545,16672,-1068,-1432,-768,-362,247
109393,2079,1045,1543,16760,-1092,-1540,-736,-267,172
109403,2079,1039,1545,16672,-1144,-1208,-736,17,107
109413,2077,1055,1545,16784,-1128,-1308,-704,276,159
109423,2078,1048,1546,16904,-960,-1488,-768,370,131
109433,2079,1049,1547,16708,-860,-1332,-752,392,286
109443,2079,1051,1547,16804,-732,-1616,-752,204,294
109453,2079,1053,1543,16732,-760,-1568,-736,-136,210
109463,2077,1049,1545,16708,-860,-1348,-752,-192,130
109473,2083,1054,1543,16720,-956,-1372,-752,-86,119
109483,2079,1063,1544,16864,-1172,-1248,-736,-41,201
109493,2079,1061,1543,16816,-972,-1396,-768,8,332
109503,2079,1049,1543,16740,-780,-1464,-720,102,308
109513,2078,1060,1533,16836,-880,-1468,-768,117,205
109523,2079,1077,1542,16712,-668,-1456,-736,9,196
109533,2079,1060,1525,16748,-640,-1548,-752,-7,278
109543,2079,1063,1545,16752,-632,-1504,-736,-47,304
109553,2079,1049,1553,16700,-700,-1464,-736,-89,249
109563,2079,1059,1545,16792,-876,-1416,-752,-91,215
109573,2078,1064,1542,16808,-812,-1368,-752,-75,232
109583,2079,1064,1542,16788,-748,-1364,-736,-65,180
109593,2078,1063,1512,16796,-864,-1180,-752,15,223
109603,2079,1063,1542,16728,-748,-1224,-736,22,278
109613,2077,1067,1532,16684,-748,-1512,-768,-16,284
109623,2078,1069,1563,16760,-884,-1456,-768,-252,236
109633,2083,1079,1543,16728,-872,-1380,-768,-332,135
109643,2078,1065,1543,16796,-928,-1212,-768,-121,149
109653,2079,1066,1543,16872,-780,-1252,-752,132,245
109663,2079,1063,1541,16720,-864,-1504,-736,62,335
109673,2079,1067,1541,16728,-928,-1528,-736,-248,374
109683,2075,1071,1543,16620,-964,-1228,-752,-150,255
109693,2079,1063,1543,16728,-944,-1352,-720,95,134
109703,2079,1065,1542,16796,-972,-1568,-736,57,110
109713,2078,1071,1543,16720,-948,-1404,-752,-156,248
109723,2079,1062,1545,16792,-1044,-1292,-720,-159,426
109733,2079,1054,1534,16608,-1104,-1456,-736,-73,351
109743,2080,1063,1543,16688,-1144,-1608,-768,-214,266
109753,2079,1068,1531,16828,-1040,-1312,-720,-306,234
109763,2079,1060,1541,16780,-1100,-1304,-752,-134,258
109773,2077,1067,1542,16876,-1100,-1480,-752,99,225
109783,2073,1069,1533,16824,-1004,-1320,-768,194,267
109793,2079,1069,1542,16836,-836,-1256,-720,278,312
109803,2079,1064,1531,16744,-828,-1372,-736,295,295
109813,2079,1060,1533,16660,-816,-1488,-768,56,279
109823,2079,1061,1540,16664,-912,-1432,-704,-299,69
109833,2079,1079,1533,16628,-996,-1368,-736,-399,69
109843,2083,1101,1542,16700,-952,-1356,-736,-135,58
109853,2078,1068,1533,16996,-900,-1232,-768,188,199
109863,2079,1071,1541,16948,-960,-1352,-736,49,401
109873,2079,1063,1533,16728,-920,-1540,-720,-136,439
109883,2079,1067,1531,16644,-768,-1196,-736,-54,293
109893,2073,1067,1544,16732,-692,-1236,-736,-22,153
109903,2078,1060,1533,16728,-812,-1688,-752,-254,108
