timestamp_ms,mmg1,mmg2,mmg3,accelX,accelY,accelZ,gyroX,gyroY,gyroZ
186597,2032,1077,1193,16904,-1488,1100,-816,1265,721
186607,2031,1106,1193,17012,-836,936,-816,-61,1070
186617,2035,1056,1191,16672,-2812,476,-784,-1095,1646
186627,1997,1033,1193,17112,-464,1340,-800,-2195,2228
186637,2036,1075,1193,16296,-464,1336,-800,-2864,2835
186647,2037,1056,1184,15844,344,504,-800,-3329,1606
186657,2035,1048,1192,16208,-1384,312,-800,-3921,-182
186667,2035,1020,1186,15920,-2524,1600,-816,-4405,-1171
186677,2035,1019,1188,17032,-2148,2372,-832,-3152,-557
186687,2036,1069,1179,15996,-1108,2056,-832,-1989,-57
186697,2035,1107,1190,17148,-744,-112,-784,-1905,-954
186707,2031,1110,1192,16524,-1616,336,-816,-2459,-1765
186717,2035,1109,1187,16536,-1964,1592,-800,-2957,-2256
186727,2035,1063,1203,16448,-2100,1684,-832,-3199,-2524
186737,2030,1069,1183,17332,-1692,1256,-816,-2913,-2518
186747,2035,1005,1191,16756,-2244,208,-800,-3084,-2310
186757,2039,1019,1194,16872,-640,2356,-832,-1711,-1816
186767,2032,1079,1193,17348,-788,1444,-832,-317,-795
186777,2042,1047,1189,16140,-2252,552,-832,-150,-570
186787,2035,1076,1190,16420,-1616,516,-816,-1198,-716
186797,2035,1079,1183,16672,-872,600,-816,-2383,-813
186807,2031,1048,1192,16320,-1316,552,-800,-1910,-1301
186817,2036,1039,1189,16744,-1832,972,-784,-1343,-1513
186827,2035,1012,1183,16900,-1668,572,-816,-1853,-1137
186837,2037,1011,1183,16592,-1208,-172,-832,-1993,-960
186847,2039,974,1187,16696,-1412,-472,-832,-1734,-1062
186857,2029,1015,1186,16768,-576,88,-816,-1976,-1026
186867,2029,1059,1181,17056,-508,244,-800,-2072,-687
186877,2032,1107,1187,16848,-440,688,-832,-2047,-250
186887,2039,1095,1193,17108,-824,756,-800,-2446,-24
186897,2037,1113,1197,17116,-1532,1284,-816,-2856,51
186907,2032,1118,1190,16732,-2256,1760,-816,-2938,-78
186917,2037,1063,1192,16488,-2756,1344,-848,-1915,-721
186927,2035,1051,1189,16360,-2328,984,-800,-416,-1410
186937,2035,1005,1188,16588,-1860,728,-816,652,-1758
186947,2031,1017,1187,16948,-856,116,-816,974,-1350
186957,2035,1023,1189,17044,-240,-812,-832,593,-967
186967,2035,1112,1191,16844,-216,-1092,-800,-504,-671
186977,2032,1123,1191,16900,-576,-412,-816,-1803,-244
186987,2035,1109,1188,16928,-812,172,-800,-2374,33
186997,2034,1075,1183,16632,-1184,388,-832,-1908,-96
187007,2031,1037,1189,16824,-1340,900,-832,-1261,-309
187017,1975,1001,1188,16880,-1100,616,-816,-719,-321
187027,2035,1045,1189,16804,-944,660,-800,-424,-502
187037,2035,1049,1190,16880,-556,540,-816,-44,-230
187047,2035,1047,1190,16748,-212,252,-832,144,-334
187057,2036,1110,1191,16632,-88,-164,-832,-68,-509
187067,2031,1087,1187,16840,-444,-212,-816,-594,-571
187077,2035,1095,1187,16836,-424,-32,-832,-1037,-486
187087,2031,1041,1188,16604,-500,120,-800,-1111,-324
187097,2035,1054,1184,16692,-680,376,-816,-973,-370
187107,2037,1061,1188,16756,-924,208,-800,-834,-557
187117,2031,1039,1187,16784,-1040,180,-800,-946,-633
187127,2035,1083,1188,16888,-1220,424,-848,-991,-540
187137,2031,1085,1181,16848,-1460,312,-816,-945,-437
187147,2035,1079,1189,16744,-1416,560,-800,-820,-392
187157,2035,1042,1191,16836,-1480,488,-816,-636,-458
187167,2035,1021,1180,16672,-1640,-116,-816,-606,-721
187177,2037,1015,1184,16732,-1736,-152,-832,-582,-911
187187,2025,1047,1187,16588,-1604,-172,-800,-400,-864
187197,2035,1061,1183,16616,-1820,-56,-832,-170,-747
187207,2030,1037,1184,16820,-1892,-268,-832,-67,-667
187217,2031,1022,1187,16928,-1464,-436,-848,179,-612
187227,2031,1051,1184,16720,-952,-440,-832,486,-265
187237,2037,1083,1184,16480,-1152,-648,-800,172,30
187247,2031,1087,1187,16708,-1372,-712,-816,-614,-160
187257,2035,1062,1189,16896,-1540,136,-816,-947,-370
187267,2035,1045,1189,16828,-1676,272,-800,-490,-311
187277,2023,1039,1190,16824,-2032,-140,-816,-77,-345
187287,2031,1032,1187,16820,-2024,132,-816,40,-282
187297,2036,1031,1189,16708,-2212,248,-800,56,-264
187307,2035,1022,1189,16856,-2248,-136,-832,-154,-513
187317,2031,1007,1189,16740,-2116,-588,-816,-9,-920
187327,2031,1045,1189,16504,-1816,-664,-832,331,-936
187337,2029,1055,1183,16608,-1788,-632,-832,482,-506
187347,2035,1055,1184,16696,-1644,-768,-848,288,-267
187357,2031,1062,1190,16620,-1440,-468,-832,98,-289
187367,2036,1061,1189,16636,-1664,-116,-784,-10,-319
187377,2035,1033,1184,16876,-1392,-208,-848,148,-343
187387,2031,1021,1187,16952,-940,-400,-800,628,-533
187397,2032,1037,1188,16836,-568,-688,-816,949,-460
187407,2031,1075,1182,16800,-372,-788,-816,649,-203
187417,2035,1095,1183,17092,-152,-496,-832,136,-207
187427,2035,1067,1183,17068,96,-240,-832,-114,-344
187437,2030,1048,1184,16964,16,-464,-816,-511,-373
187447,2032,1055,1183,16704,-416,-40,-832,-987,-301
187457,2024,1034,1183,16756,-1108,-64,-832,-1131,-284
187467,2035,1037,1184,16728,-1472,-88,-816,-834,-550
187477,2059,1022,1184,16464,-1916,-148,-800,-370,-940
187487,2034,1043,1189,16656,-2052,-304,-800,314,-973
187497,2035,1048,1188,16792,-1748,-940,-848,585,-799
187507,2056,1097,1183,17028,-1576,-1340,-816,425,-729
187517,2031,1053,1189,17096,-1000,-1392,-832,248,-519
187527,2034,1069,1189,16892,-784,-1928,-816,-6,-308
187537,2035,1087,1211,16900,-512,-1868,-832,-289,-18
187547,2035,1095,1184,16908,-572,-1320,-832,-651,259
187557,2032,1075,1181,17020,-764,-1172,-816,-890,352
187567,2031,1066,1187,16744,-884,-836,-832,-890,374
187577,2031,1061,1184,16812,-932,-784,-800,-391,456
187587,2035,1051,1183,16912,-1240,-588,-784,-170,503
187597,2032,1052,1181,16768,-1052,-568,-784,44,181
187607,2031,1062,1181,16776,-536,-268,-800,478,167
187617,2025,1059,1182,16604,-776,-660,-848,449,583
187627,2031,1065,1183,16852,-772,-648,-816,192,836
187637,2031,1073,1181,16880,-684,-672,-800,-112,655
187647,2031,1067,1187,16452,-692,-668,-832,-200,324
187657,2035,1077,1183,16804,-672,-556,-832,-65,205
187667,2032,1067,1183,16724,-652,-512,-800,91,158
187677,2031,1079,1183,17040,-692,-604,-800,128,194
187687,2031,1067,1183,17032,-540,-544,-800,135,288
187697,2031,1061,1183,16984,-536,-740,-800,210,322
187707,2035,1069,1183,16852,-576,-796,-816,120,357
187717,2031,1092,1187,16856,-636,-548,-832,-84,446
187727,2035,1099,1187,16672,-692,-300,-832,-145,487
187737,2035,1083,1184,16708,-664,-136,-784,-69,473
187747,2035,1139,1183,16732,-780,-456,-784,-227,476
187757,2029,1063,1184,16624,-804,-296,-832,-622,557
187767,2031,1065,1183,16684,-1004,-28,-784,-798,579
187777,2035,1051,1183,16752,-1156,-40,-848,-849,373
187787,2035,1053,1183,16612,-1348,-124,-832,-889,151
187797,2031,1067,1183,16676,-1140,-196,-800,-869,11
187807,2035,1034,1175,16756,-1108,-200,-800,-938,85
187817,2029,986,1182,16760,-1076,-356,-832,-1047,-1
187827,2030,1011,1183,16816,-1120,-440,-800,-1179,-45
187837,2035,1047,1183,16644,-1004,-324,-832,-1144,52
187847,2031,1067,1181,16828,-1128,-816,-832,-1281,54
187857,2035,1093,1183,16980,-1312,-904,-816,-1467,7
187867,2035,1123,1177,16780,-1528,-740,-848,-1574,-30
187877,2036,1093,1182,16816,-1600,-376,-784,-1276,185
187887,2031,1093,1183,16764,-1776,-412,-816,-1150,319
187897,2024,1081,1190,16636,-1840,-504,-816,-1041,261
187907,2035,1084,1181,16688,-1936,-472,-800,-977,130
187917,2032,1086,1181,16672,-1856,-220,-800,-620,-14
187927,2031,1087,1182,16832,-1968,-532,-816,-299,-57
187937,2023,1081,1184,16888,-1848,-404,-800,-202,-80
187947,2036,1068,1181,16848,-1644,-596,-832,-238,-6
187957,2031,1079,1181,16828,-1632,-580,-832,-167,-7
187967,2032,1091,1181,16836,-1680,-532,-816,63,18
187977,2035,1075,1181,16768,-1592,-728,-848,254,67
187987,2031,1076,1183,16832,-1524,-884,-784,81,86
187997,2032,1081,1187,16756,-1624,-688,-832,-123,166
188007,2032,1061,1181,16724,-1776,-756,-816,-217,208
188017,2031,1075,1182,16700,-1956,-628,-816,-331,142
188027,2031,1071,1181,16816,-2108,-664,-832,-312,85
188037,2031,1080,1183,16748,-2180,-504,-848,-233,102
188047,2035,1092,1182,16700,-2080,-496,-816,87,131
188057,2031,1070,1181,16748,-1872,-492,-800,314,157
188067,2031,1065,1164,16904,-1772,-580,-800,284,182
188077,2037,1068,1183,16712,-1516,-400,-800,289,173
188087,2031,1069,1181,16620,-1192,-288,-800,462,185
188097,2034,1062,1180,16768,-1048,-492,-832,553,149
188107,2035,1049,1179,16816,-764,-764,-784,420,88
188117,2031,1050,1181,16776,-640,-728,-784,72,152
188127,2009,1065,1179,16824,-832,-484,-816,-143,99
188137,2029,1080,1181,16628,-996,-560,-800,-118,107
188147,2035,1083,1179,16672,-908,-580,-816,-47,113
188157,2031,1077,1181,16680,-1008,-732,-832,-89,161
188167,2031,1078,1179,16780,-1120,-732,-800,-278,168
188177,2031,1115,1183,16864,-1088,-432,-800,-290,205
188187,2036,1097,1181,16792,-1112,-444,-832,-148,211
188197,2041,1084,1183,16816,-1220,-692,-784,-32,106
188207,2035,1085,1172,16712,-1180,-608,-800,-142,112
188217,2032,1086,1179,16776,-1200,-664,-800,-306,93
188227,2035,1065,1179,16776,-1192,-476,-816,-221,-97
188237,2031,1053,1179,16772,-1244,-580,-784,-118,86
188247,2031,1067,1180,16800,-1472,-560,-832,-174,60
188257,2031,1066,1179,16732,-1420,-376,-816,-43,191
188267,2031,1081,1179,16592,-1620,-632,-816,-2,117
188277,2031,1076,1179,16576,-1664,-704,-800,-208,60
188287,2032,1069,1178,16576,-1888,-636,-800,-439,-75
188297,2029,1069,1179,16684,-2092,-472,-800,-439,-211
188307,2031,1085,1180,16904,-2256,-504,-832,-120,-160
188317,2031,1083,1179,16968,-2036,-300,-832,158,-114
188327,2039,1082,1179,16928,-1720,-644,-800,494,75
188337,2035,1085,1179,16812,-1600,-1084,-832,523,174
188347,2031,1098,1209,16876,-1344,-852,-784,387,212
188357,2035,1098,1179,16780,-1188,-508,-800,449,208
188367,2031,1082,1178,16844,-1036,-424,-800,449,217
188377,2031,1079,1179,16708,-1020,-544,-816,352,209
188387,2030,1070,1178,16684,-1116,-572,-784,99,150
188397,2031,1071,1179,16720,-1336,-496,-800,-111,2
188407,2031,1067,1180,16712,-1636,-368,-784,-87,-135
188417,2031,1055,1178,16720,-1684,-348,-816,93,-183
188427,2031,1045,1177,16748,-1676,-468,-832,340,-156
188437,2031,1069,1180,16776,-1664,-888,-800,400,-69
188447,2031,1079,1182,16640,-1512,-784,-784,439,-87
188457,2030,1070,1179,16772,-1324,-852,-816,444,-25
188467,2030,1072,1179,16592,-1148,-916,-816,374,-57
188477,2029,1083,1176,16772,-972,-888,-784,334,-45
188487,2031,1012,1180,16856,-856,-988,-832,154,15
188497,2031,1094,1180,16944,-736,-952,-784,-50,122
188507,2031,1097,1178,16828,-884,-912,-816,-167,200
188517,2031,1095,1179,16760,-832,-764,-800,-107,140
188527,2031,1095,1179,16784,-796,-684,-784,-45,63
188537,2023,1081,1179,16880,-984,-636,-784,-118,39
188547,2031,1099,1179,16812,-980,-612,-800,-80,-11
188557,2031,1077,1177,16892,-1084,-676,-800,157,-39
188567,2035,1082,1177,16752,-864,-708,-816,270,67
188577,2034,1078,1179,16688,-964,-848,-768,176,142
188587,2031,1083,1178,16696,-1132,-856,-800,-54,90
188597,2031,1082,1179,16708,-1252,-580,-784,-72,-26
188607,2035,1081,1179,16748,-1428,-660,-800,9,-96
188617,2031,1083,1179,16780,-1488,-636,-768,-74,12
188627,2031,1084,1196,16772,-1640,-628,-816,-52,-3
188637,2031,1083,1181,16704,-1736,-436,-784,88,101
188647,2030,1077,1179,16836,-1736,-496,-800,291,4
188657,2031,1084,1179,16716,-1588,-752,-832,431,-114
188667,2031,1085,1180,16704,-1652,-980,-800,299,-163
188677,2031,1085,1179,16916,-1392,-932,-800,163,-124
188687,2031,1080,1199,16664,-1484,-1100,-784,-26,-7
188697,2035,1071,1180,16788,-1480,-1188,-800,-262,50
188707,2031,1078,1179,16812,-1648,-1068,-800,-467,19
188717,2031,1075,1179,16608,-1752,-880,-816,-477,3
188727,2031,1077,1180,16772,-1828,-1016,-832,-507,37
188737,2030,1085,1180,16816,-1816,-652,-800,-456,96
188747,2031,1095,1179,16740,-1752,-580,-784,-220,201
188757,2031,1075,1179,16676,-1756,-716,-784,-113,184
188767,2031,1075,1179,16708,-1684,-744,-800,-195,33
188777,2031,1076,1178,16760,-1652,-728,-784,-294,-34
188787,2035,1071,1176,16836,-1724,-744,-784,-249,-15
188797,2031,1069,1179,16768,-1704,-860,-800,-86,1
188807,2031,1119,1178,16740,-1724,-824,-800,34,28
188817,2031,1093,1177,16816,-1580,-744,-816,200,64
188827,2031,1092,1177,16680,-1320,-892,-800,366,90
188837,2031,1077,1178,16776,-1252,-1196,-800,203,127
188847,2032,1083,1177,16684,-1136,-908,-768,-119,75
188857,2031,1086,1176,16756,-1112,-988,-784,-287,36
188867,2030,1093,1176,16664,-1188,-752,-816,-381,80
188877,2031,1103,1177,16720,-1288,-860,-816,-366,75
188887,2073,1094,1171,16916,-1400,-796,-784,-303,107
188897,2035,1084,1178,16732,-1540,-724,-784,-221,189
188907,2029,1092,1181,16732,-1528,-816,-784,-100,190
188917,2035,1096,1177,16640,-1572,-784,-800,-25,114
188927,2031,1095,1179,16756,-1444,-936,-800,-39,80
188937,2031,1076,1178,16888,-1408,-820,-784,12,142
188947,2031,1084,1176,16856,-1472,-920,-768,-5,151
188957,2031,1075,1178,16744,-1532,-1156,-800,-56,128
188967,2035,1093,1178,16636,-1676,-872,-800,-99,87
188977,2031,1093,1177,16736,-1592,-984,-784,-83,103
188987,2031,1080,1179,16816,-1520,-1128,-752,-42,146
188997,2035,1080,1179,16716,-1736,-1020,-816,-88,227
189007,2031,1082,1178,16868,-1648,-668,-816,-121,244
189017,2031,1084,1176,16740,-1708,-724,-800,11,217
189027,2029,1085,1178,16748,-1516,-1048,-816,96,150
189037,2037,1082,1178,16656,-1536,-1044,-800,11,187
189047,2029,1082,1176,16796,-1452,-768,-800,-30,376
189057,2031,1081,1177,16816,-1312,-920,-800,67,286
189067,2025,1079,1177,16672,-1240,-744,-800,58,211
189077,2031,1083,1177,16788,-1144,-1016,-768,-112,228
189087,2030,1082,1176,16712,-1156,-868,-816,-260,249
189097,2035,1034,1176,16716,-1352,-808,-800,-209,180
189107,2031,1077,1175,16740,-1312,-792,-768,-69,127
189117,2031,1083,1177,16864,-1256,-764,-816,43,219
189127,2031,1083,1177,16828,-1196,-724,-784,68,286
189137,2031,1112,1178,16748,-1152,-864,-800,-27,299
189147,2035,1093,1176,16564,-1116,-620,-816,-88,268
189157,2031,1085,1171,16760,-1352,-1052,-752,-175,134
189167,2069,1085,1176,16764,-1356,-864,-800,-175,127
189177,2027,1095,1176,16808,-1456,-780,-768,-153,188
189187,2030,1109,1176,16860,-1436,-788,-816,-74,208
189197,2031,1105,1177,16832,-1408,-896,-800,63,217
189207,2031,1100,1177,16884,-1448,-900,-784,85,276
189217,2031,1091,1178,16724,-1232,-860,-784,45,357
189227,2032,1087,1179,16620,-1296,-1136,-768,-131,268
189237,2031,1085,1175,16772,-1412,-816,-752,-294,186
189247,2031,1095,1176,16744,-1484,-708,-816,-239,184
189257,2030,1091,1175,16820,-1568,-900,-800,-119,224
189267,2031,1084,1176,16920,-1584,-760,-816,1,278
189277,2031,1095,1177,16744,-1436,-808,-816,58,319
189287,2034,1086,1177,16720,-1420,-968,-800,-23,332
189297,2035,1084,1179,16712,-1440,-864,-800,2,206
189307,2031,1084,1177,16836,-1448,-880,-784,46,153
189317,2035,1095,1177,16868,-1400,-772,-800,82,176
189327,2031,1093,1174,16840,-1288,-720,-800,164,282
189337,2032,1095,1176,16732,-1320,-964,-784,87,276
189347,2031,1095,1177,16776,-1304,-876,-784,-60,222
189357,2039,1096,1175,16716,-1356,-900,-800,-51,136
189367,2031,1095,1175,16856,-1376,-752,-784,-20,126
189377,2031,1093,1176,16780,-1336,-720,-832,38,202
189387,2031,1085,1175,16608,-1276,-912,-800,25,233
189397,2031,1099,1175,16660,-1204,-944,-784,-127,204
189407,2030,1095,1176,16812,-1332,-664,-768,-178,165
189417,2029,1091,1176,16764,-1460,-712,-768,-193,150
189427,2031,1087,1175,16716,-1436,-680,-800,-195,185
189437,2029,1087,1176,16768,-1432,-832,-800,-213,214
189447,2031,1087,1175,16748,-1556,-864,-768,-226,225
189457,2029,1083,1170,16716,-1392,-868,-784,-155,225
189467,2031,1098,1173,16740,-1376,-840,-800,-63,171
189477,2029,1097,1177,16840,-1236,-860,-800,-77,218
189487,2031,1112,1175,16812,-1212,-916,-784,-183,192
189497,2031,1092,1176,16756,-1236,-888,-784,-290,181
189507,2031,1094,1175,16784,-1228,-900,-768,-279,163
189517,2035,1092,1175,16828,-1408,-1000,-768,-217,147
189527,2035,1083,1176,16720,-1424,-872,-800,-97,131
189537,2029,1087,1176,16804,-1404,-1000,-768,61,159
189547,2030,1085,1179,16792,-1388,-880,-800,36,265
189557,2029,1085,1175,16808,-1388,-872,-768,-129,268
189567,2030,1085,1173,16680,-1464,-776,-768,-219,204
189577,2031,1083,1173,16728,-1428,-972,-784,-225,124
189587,2077,1075,1173,16648,-1548,-652,-816,-98,89
189597,2031,1084,1175,16780,-1644,-904,-800,48,141
189607,2031,1095,1175,16776,-1568,-824,-784,53,188
189617,2031,1094,1174,16808,-1384,-948,-784,61,209
189627,2031,1099,1174,16788,-1248,-1052,-768,-34,151
189637,2032,1101,1173,16736,-1332,-940,-784,-125,118
189647,2022,1099,1175,16720,-1352,-1052,-784,-236,145
189657,2031,1097,1175,16732,-1476,-788,-800,-289,176
189667,2031,1081,1177,16692,-1536,-672,-800,-113,130
189677,2030,1081,1173,16792,-1548,-928,-800,126,100
189687,2031,1086,1175,16880,-1416,-784,-784,130,161
189697,2031,1096,1175,16768,-1352,-800,-816,18,264
189707,2031,1086,1178,16760,-1276,-856,-784,10,238
189717,2031,1083,1175,16732,-1412,-956,-816,1,141
189727,2029,1093,1171,16768,-1376,-668,-752,81,188
189737,2031,1092,1172,16816,-1268,-740,-800,204,241
189747,2031,1067,1170,16788,-1268,-892,-816,155,226
189757,2031,1101,1174,16768,-1128,-824,-784,35,196
189767,2031,1097,1173,16744,-1200,-824,-784,-2,172
189777,2034,1095,1174,16652,-1156,-900,-800,-44,122
189787,2031,1101,1172,16740,-1276,-928,-800,-100,134
189797,2031,1091,1172,16684,-1424,-1056,-832,-81,203
189807,2031,1101,1178,16732,-1320,-840,-768,20,175
189817,2029,1097,1173,16884,-1316,-868,-800,87,139
189827,2029,1093,1173,16836,-1180,-816,-816,35,194
189837,2031,1084,1175,16776,-1160,-804,-784,-3,287
189847,2031,1085,1176,16724,-1280,-772,-784,-34,264
189857,2031,1086,1174,16700,-1348,-780,-768,-100,320
189867,2031,1086,1173,16776,-1336,-596,-816,-89,325
189877,2029,1094,1173,16860,-1216,-824,-784,61,184
189887,2029,1100,1173,16852,-1276,-972,-816,91,233
189897,2031,1095,1172,16768,-1176,-760,-800,72,234
189907,2029,1085,1173,16788,-1144,-856,-768,131,146
189917,2031,1098,1172,16596,-1192,-932,-816,61,117
189927,2029,1100,1173,16864,-1076,-892,-768,-121,181
189937,2031,1099,1173,16868,-1148,-788,-800,-171,191
189947,2027,1105,1171,16808,-1192,-992,-784,-167,200
189957,2031,1103,1171,16732,-1264,-1248,-800,-139,228
189967,2036,1101,1173,16732,-1320,-1020,-832,-141,179
189977,2031,1093,1171,16672,-1316,-684,-784,-43,191
189987,2029,1096,1173,16720,-1380,-720,-784,14,216
189997,2031,1100,1172,16756,-1336,-904,-768,-27,242
190007,2058,1094,1173,16812,-1316,-900,-784,-29,253
190017,2031,1096,1174,16788,-1332,-672,-784,-34,198
190027,2057,1094,1172,16788,-1448,-820,-800,0,148
190037,2035,1091,1172,16780,-1448,-1008,-768,17,113
190047,2031,1095,1173,16820,-1364,-716,-768,7,176
190057,2032,1095,1172,16812,-1300,-936,-768,-19,228
190067,2037,1084,1175,16740,-1216,-960,-768,-7,205
190077,2029,1085,1173,16736,-1188,-936,-768,-55,206
190087,2031,1078,1173,16684,-1268,-764,-768,-153,250
190097,2031,1093,1173,16808,-1340,-812,-784,-207,230
190107,2029,1093,1172,16800,-1384,-920,-768,-173,152
190117,2030,1097,1151,16756,-1352,-916,-768,-54,151
190127,2031,1099,1169,16904,-1248,-752,-784,-38,189
190137,2031,1095,1171,16816,-1192,-900,-816,-32,214
190147,2031,1087,1173,16664,-1272,-788,-800,-62,234
190157,2031,1096,1173,16700,-1252,-736,-768,-105,195
190167,2031,1096,1171,16628,-1200,-952,-752,-112,146
190177,2029,1097,1171,16724,-1292,-916,-800,-51,157
190187,2030,1116,1171,16836,-1404,-1028,-768,-27,185
190197,2020,1109,1173,16952,-1232,-788,-816,18,189
190207,2023,1143,1171,16736,-1200,-964,-768,38,236
190217,2030,1086,1172,16644,-1108,-900,-784,-34,223
190227,2031,1097,1165,16700,-1208,-868,-784,-138,177
190237,2029,1097,1171,16804,-1272,-768,-784,-254,163
190247,2031,1093,1172,16860,-1360,-800,-784,-219,190
190257,2029,1093,1171,16816,-1376,-816,-784,-127,221
190267,2030,1096,1171,16756,-1404,-888,-800,-114,69
190277,2031,1097,1171,16864,-1324,-888,-800,-125,290
190287,2031,1098,1171,16836,-1344,-832,-784,-67,152
190297,2029,1084,1171,16804,-1244,-988,-768,1,200
190307,2032,1097,1169,16692,-1224,-1032,-768,-66,240
190317,2030,1099,1173,16692,-1172,-1116,-784,-198,294
190327,2029,1100,1171,16768,-1260,-668,-800,-243,184
190337,2031,1100,1171,16792,-1364,-860,-800,-141,129
190347,2030,1102,1173,16864,-1296,-872,-784,-95,207
190357,2030,1100,1169,16772,-1312,-932,-816,-94,263
190367,2031,1133,1172,16732,-1280,-888,-768,-71,257
190377,2014,1100,1171,16748,-1188,-756,-800,-51,206
190387,2031,1099,1171,16740,-1292,-928,-768,-99,195
190397,2031,1094,1169,16748,-1240,-1100,-768,-194,231
190407,2029,1093,1170,16732,-1196,-992,-800,-171,215
190417,2029,1093,1169,16728,-1300,-900,-800,-115,237
190427,2029,1101,1172,16848,-1396,-1000,-800,-54,225
190437,2031,1101,1167,16716,-1348,-840,-784,-14,245
190447,2031,1101,1169,16712,-1236,-904,-768,-31,269
190457,2031,1097,1176,16824,-1324,-1036,-800,-88,303
190467,2032,1097,1170,16632,-1284,-716,-784,-125,277
190477,2031,1101,1169,16808,-1304,-952,-752,-96,249
190487,2036,1107,1171,16824,-1324,-836,-832,-63,255
190497,2030,1111,1183,16864,-1224,-744,-816,-46,272
190507,2029,1099,1171,16748,-1136,-896,-784,-30,302
190517,2029,1098,1171,16744,-1164,-1044,-768,-23,224
190527,2031,1101,1173,16876,-1228,-1164,-800,-164,242
190537,2023,1096,1169,16736,-1360,-1008,-816,-179,265
190547,2030,1097,1173,16808,-1464,-912,-784,-50,246
190557,2031,1099,1167,16832,-1436,-780,-784,-53,271
190567,2030,1101,1172,16840,-1444,-816,-800,-164,322
190577,2031,1097,1171,16760,-1492,-892,-816,-177,290
190587,2030,1100,1167,16696,-1496,-972,-768,-99,222
190597,2030,1101,1166,16760,-1400,-912,-784,-38,199
190607,2029,1098,1169,16840,-1428,-728,-768,-2,276
190617,2029,1101,1170,16836,-1256,-892,-800,-26,305
190627,2029,1095,1171,16748,-1328,-788,-800,-59,307
190637,2029,1093,1173,16732,-1348,-692,-800,-101,271
190647,2029,1095,1171,16664,-1320,-972,-800,-196,257
190657,2029,1085,1173,16836,-1400,-848,-784,-158,252
190667,2005,1092,1172,16804,-1464,-784,-768,-9,189
190677,2029,1093,1169,16788,-1268,-636,-800,99,195
190687,2029,1101,1167,16808,-1176,-784,-816,5,279
190697,2029,1101,1167,16744,-1200,-828,-784,-112,269
190707,2029,1100,1165,16724,-1256,-648,-768,-53,182
190717,2029,1097,1167,16836,-1256,-816,-752,-99,161
190727,2029,1095,1165,16728,-1308,-908,-784,-182,218
190737,2029,1105,1166,16804,-1332,-812,-768,-108,219
190747,2030,1109,1169,16740,-1404,-864,-800,-12,215
190757,2029,1095,1171,16780,-1292,-764,-784,34,242
190767,2031,1101,1175,16828,-1264,-868,-768,45,239
190777,2031,1102,1168,16800,-1220,-964,-768,-69,225
190787,2031,1106,1167,16732,-1264,-848,-784,-121,252
190797,2030,1094,1171,16724,-1304,-876,-800,-98,238
190807,2031,1096,1170,16776,-1276,-776,-784,-40,187
190817,2030,1098,1169,16700,-1224,-704,-784,32,203
190827,2023,1097,1167,16748,-1180,-832,-800,-22,205
190837,2029,1100,1170,16624,-1152,-964,-752,-42,174
190847,2029,1099,1163,16760,-1292,-924,-784,-206,214
190857,2029,1099,1166,16720,-1408,-820,-800,-200,172
190867,2031,1095,1171,16764,-1332,-796,-768,-49,139
190877,2031,1098,1165,16876,-1352,-856,-784,25,193
190887,2031,1101,1157,16912,-1132,-784,-800,51,234
190897,2031,1109,1165,16872,-1184,-764,-800,42,233
190907,2029,1111,1166,16772,-1064,-792,-784,42,238
190917,2029,1108,1166,16740,-1172,-796,-800,-65,193
190927,2031,1085,1169,16832,-1184,-892,-800,-134,147
190937,2027,1087,1207,16724,-1272,-888,-752,-92,201
190947,2037,1099,1170,16836,-1352,-716,-784,-53,210
190957,2029,1100,1166,16704,-1396,-728,-768,-92,145
190967,2029,1101,1165,16684,-1464,-864,-752,-106,81
190977,2029,1098,1165,16800,-1476,-792,-736,45,75
190987,2031,1107,1164,16752,-1456,-948,-768,130,137
190997,2030,1103,1163,16776,-1348,-936,-768,92,227
191007,2029,1097,1170,16800,-1288,-960,-768,2,163
191017,2029,1101,1166,16740,-1272,-932,-800,-7,135
191027,2029,1121,1165,16788,-1108,-772,-752,47,161
191037,2030,1111,1166,16828,-1120,-752,-800,27,227
191047,2028,1106,1167,16804,-1108,-880,-768,-124,283
191057,2030,1107,1165,16652,-1168,-868,-816,-99,238
191067,2031,1097,1165,16688,-1212,-888,-752,-2,121
191077,2029,1097,1165,16768,-1384,-864,-768,-35,112
191087,2029,1101,1165,16828,-1320,-996,-752,-100,223
191097,2029,1098,1165,16816,-1364,-840,-784,-7,218
191107,2029,1093,1166,16724,-1396,-836,-768,36,174
191117,2028,1091,1166,16780,-1428,-844,-768,-9,152
191127,2029,1098,1165,16724,-1264,-768,-768,46,109
191137,2029,1095,1165,16720,-1324,-892,-768,91,110
191147,2031,1109,1165,16688,-1372,-1008,-768,89,113
191157,2029,1100,1166,16756,-1396,-852,-736,190,118
191167,2005,1099,1165,16800,-1128,-828,-736,270,117
191177,2029,1100,1165,16708,-1008,-1016,-752,193,184
191187,2031,1097,1165,16780,-1004,-1056,-784,-17,225
191197,2029,1093,1164,16632,-1036,-992,-752,-126,225
191207,2029,1083,1170,16744,-1112,-972,-784,-173,155
191217,2030,1099,1166,16772,-1108,-784,-784,-222,163
191227,2029,1096,1164,16852,-1100,-680,-800,-237,221
191237,2029,1097,1165,16868,-1132,-768,-768,-192,250
191247,2030,1109,1165,16768,-1124,-716,-784,-129,234
191257,2019,1101,1165,16740,-1148,-756,-768,-83,219
191267,2029,1101,1164,16800,-1192,-820,-736,-136,151
191277,2029,1097,1166,16812,-1308,-880,-800,-201,109
191287,2027,1095,1165,16844,-1312,-756,-784,-65,170
191297,2029,1126,1165,16760,-1376,-1120,-784,45,219
191307,2027,1099,1169,16660,-1548,-1184,-752,-21,254
191317,2028,1095,1169,16592,-1632,-996,-752,20,277
191327,2030,1082,1166,16568,-1756,-924,-752,84,241
191337,2029,1085,1165,16656,-1848,-808,-784,103,210
191347,2031,1087,1165,16752,-1776,-712,-768,228,261
191357,2024,1077,1166,16956,-1624,-904,-800,415,192
191367,2029,1077,1165,16800,-1796,-1008,-784,303,191
191377,2029,1085,1167,16764,-1852,-960,-768,156,402
191387,2029,1091,1165,16736,-1848,-908,-768,220,466
191397,2029,1099,1165,16896,-1668,-800,-752,312,335
191407,2029,1085,1164,16852,-1472,-1000,-800,101,395
191417,2029,1081,1169,16540,-1772,-1300,-768,-472,477
191427,2029,1081,1167,16488,-2280,-848,-752,-946,434
191437,2031,1083,1169,16556,-2764,-540,-784,-851,178
191447,2030,1087,1165,16788,-3168,-700,-800,-456,-94
191457,2031,1064,1164,16512,-3452,-788,-800,-184,-19
191467,2029,1077,1165,16740,-3304,-948,-768,-14,185
191477,2029,1045,1167,16564,-3352,-1056,-768,-77,401
191487,2031,1020,1169,16324,-3384,-1028,-800,-242,462
191497,2030,1047,1171,16176,-3484,-648,-768,-203,466
191507,2029,1077,1165,16140,-3140,-720,-800,-21,330
191517,2029,1069,1166,16308,-2916,-520,-784,130,235
191527,2029,1053,1169,16340,-3064,-1084,-800,-232,167
191537,2029,1014,1173,16484,-3604,-1332,-768,-1023,-5
191547,2031,967,1171,16360,-4552,-1256,-784,-1245,-190
191557,2029,1081,1164,16356,-5576,-1728,-784,-1071,-373
191567,2031,1173,1167,16584,-6580,-1724,-768,-649,-439
191577,2031,1195,1163,16708,-7300,-1516,-768,13,-193
191587,2027,1131,1170,16712,-6944,-508,-784,880,651
191597,2026,1101,1161,16176,-6268,428,-768,1846,2228
191607,2025,1312,1161,15916,-3640,2628,-768,3990,3698
191617,2028,1223,1144,15640,-164,3496,-784,7263,4199
191627,2030,1163,1141,15648,2424,908,-768,8839,2918
191637,2035,1253,1150,16336,5652,-1892,-752,8031,51
191647,2031,1235,1172,16204,6476,-3144,-784,4282,-2396
191657,2029,1145,1176,16176,6036,-1772,-784,-1097,-2364
191667,2031,1049,1175,15480,4100,-136,-784,-4092,-812
191677,2026,1003,1171,15872,2536,88,-784,-3607,505
191687,2029,994,1161,15916,1036,-144,-768,-2185,758
191697,2027,1111,1157,16644,620,-324,-768,-1499,637
191707,2027,1182,1144,16500,1320,144,-816,-1653,961
191717,2031,989,1147,15964,1952,-568,-768,-1211,860
191727,2029,1053,1161,14912,2628,-1216,-768,-331,-59
191737,2031,1015,1167,14516,3844,-1404,-784,1331,-1238
191747,2034,922,1163,16872,3780,-3916,-768,1308,-3190
191757,2029,1005,1159,17624,2060,-5960,-768,-1152,-4520
191767,2027,1054,1160,17308,872,-4300,-752,-3256,-2836
191777,2025,1003,1149,16796,976,-1212,-752,-2132,1156
191787,2023,1148,1144,16640,2196,-828,-800,1313,3567
191797,2029,1453,1144,16476,3864,-2528,-768,3108,2895
191807,2033,1355,1162,17088,5768,-4032,-768,621,1280
191817,2027,1191,1174,16820,6412,-2404,-736,-3214,1190
191827,2036,1131,1176,16548,5660,-1044,-720,-6615,2497
191837,2031,1110,1172,15348,3552,-216,-752,-7216,2807
191847,2028,1098,1164,15276,2288,672,-768,-5193,2027
191857,2031,1096,1159,15468,1180,1052,-784,-2841,598
191867,2030,1096,1157,16428,1444,160,-784,-1033,-694
191877,2027,1101,1160,16052,2560,-96,-800,72,-562
191887,2027,1110,1162,16488,4740,-352,-752,1563,202
191897,2031,1105,1161,15480,7300,-772,-784,2331,1481
191907,2029,1108,1165,15944,7996,-2992,-768,1287,1505
191917,2029,1107,1183,15956,7292,-3932,-768,-2663,864
191927,2021,1101,1193,15200,4452,-1260,-768,-7368,2206
191937,2029,1099,1187,15260,1932,900,-784,-7852,2673
191947,2025,1099,1164,16272,3280,3508,-784,-3504,2647
191957,2029,1100,1159,14840,5100,2252,-784,3737,2016
191967,2030,1102,1147,14712,8148,-676,-784,5918,652
191977,2027,1102,1159,15256,10324,-956,-784,3441,448
191987,2031,1101,1146,16824,9168,-2924,-784,-1074,-810
191997,2027,1101,1165,17836,8108,-284,-800,-2943,-1907
192007,2025,1099,1162,16536,8000,3692,-768,-607,244
192017,2029,1101,1149,14796,9932,2668,-784,3955,2001
192027,2027,1101,1171,14764,11984,-956,-800,5050,1130
192037,2031,1101,1177,15880,12464,-1440,-800,2355,-282
192047,2029,1100,1171,16604,12664,-644,-784,-342,-584
192057,2028,1101,1163,16624,12160,764,-784,-142,93
192067,2029,1100,1173,16700,11736,736,-768,1692,829
192077,2035,1099,1184,15444,11888,1372,-816,2384,2485
192087,2031,1103,1197,13976,13016,2400,-784,3692,4263
192097,2034,1101,1197,12892,14024,1984,-768,5371,4222
192107,2039,1099,1193,12788,14064,1648,-768,5908,2907
192117,2030,1107,1179,13724,13884,1276,-768,6124,803
192127,2036,1101,1259,14944,13544,2464,-768,6670,-1765
192137,2024,1095,1189,15908,12820,3284,-784,6933,-596
192147,2003,1100,1116,19860,17084,-384,-768,8820,-1253
192157,2009,1095,1126,22536,20868,320,-768,14179,-4981
192167,2005,1099,1044,26968,26808,-6812,-784,14181,-8247
192177,2031,1097,1128,29460,26856,-5128,-752,9601,-8314
192187,2071,1095,1146,32767,23652,-2480,-800,1509,-4175
192197,2055,1109,1159,32767,19632,-1376,-768,-2001,-4306
192207,2071,1107,1100,32767,13916,1500,-784,-2472,-4051
192217,2055,1094,1077,32767,8456,2856,-768,-2007,-2171
192227,2043,1109,1015,32767,4504,1648,-768,-2762,1967
192237,2009,1092,931,32767,3568,268,-752,-2735,5467
192247,1980,1077,1135,22168,5920,-8408,-800,-212,7655
192257,1999,1106,1250,9772,1552,-25116,-752,-5604,8021
192267,2101,1175,1053,9804,-9364,-24832,-784,-25303,11373
192277,2073,1593,1039,11096,-26412,-19776,-800,-32768,11697
192287,2027,1386,1144,10884,-29576,60,-784,-32768,6782
192297,1995,1369,1212,4520,-27516,6136,-784,-21740,2771
192307,1997,1001,1257,13500,-24176,2532,-768,9119,1986
192317,2004,856,1316,13472,-19212,-2360,-800,13635,3442
192327,2067,764,1315,4576,-10712,1512,-784,14794,4806
192337,2065,653,1242,1764,-8452,-5252,-800,11561,3882
192347,2039,851,1132,948,-4596,-4484,-784,2117,2260
192357,2007,974,1132,-744,-1144,-152,-784,-2663,2219
192367,2019,840,1191,-1868,32,152,-784,2284,398
192377,2023,1011,1184,60,-3072,-720,-768,5165,550
192387,2031,1190,1139,1480,-3944,-2724,-784,2352,1388
192397,2027,1308,1139,1568,-2528,40,-736,-395,2166
192407,2027,1309,1159,1148,-660,2428,-800,-50,2739
192417,2026,1134,1160,800,172,2628,-768,2857,2879
192427,2025,1031,1172,300,-300,1588,-736,4846,2619
192437,2025,1101,1179,620,12,1804,-736,5332,3153
192447,2023,1191,1192,568,748,3108,-752,5745,2797
192457,2039,1190,1189,396,1500,3912,-768,7307,2059
192467,2021,1125,1173,-176,2188,3600,-800,8541,1727
192477,2038,1082,1171,-640,2380,1540,-752,8795,1737
192487,2036,1023,1150,-648,2772,-60,-752,7506,747
192497,2027,1051,1146,-576,2300,-1600,-768,5152,-761
192507,2030,1109,1135,336,1844,-1696,-784,2088,-1567
192517,2029,1134,1133,904,1312,-1620,-784,-1625,-2315
192527,2041,1106,1144,2412,1124,-216,-768,-4514,-2394
192537,2023,1034,1165,3388,540,-1408,-800,-7245,-2386
192547,2030,1018,1165,4344,-268,-1172,-784,-9630,-2008
192557,2037,698,1187,4172,-1816,-1480,-784,-12427,-1378
192567,2018,47,1225,4316,-4284,-1788,-816,-15909,-386
192577,2027,167,1235,6068,-8128,-2020,-768,-19419,-903
192587,2021,602,1292,8468,-13556,-404,-816,-21799,-3545
192597,2039,1188,1271,9840,-20012,1808,-784,-21793,-5169
192607,2021,2393,1197,10908,-24860,4928,-784,-17330,-8109
192617,2031,2645,971,28172,-29152,-300,-768,-4223,-13972
192627,2039,0,1161,32767,-32768,-9120,-768,-668,-28114
192637,2108,1068,1263,13828,-10020,-1432,-784,29616,-19280
192647,2014,1833,446,7016,8420,-9160,-800,32767,5299
192657,1821,219,949,26564,32767,-11712,-768,32767,26293
192667,2023,1043,1695,32767,32767,8476,-784,32767,26287
192677,2125,1528,1898,32767,32767,-28516,-816,968,5912
192687,1956,1755,2131,4672,32767,-24548,-800,-32768,6135
192697,2055,1845,1455,-748,27440,320,-800,-32768,2518
192707,2157,1820,1048,8208,17192,8276,-800,-27671,-3941
192717,1977,1813,1209,19924,13948,-6460,-768,-18455,-15162
192727,2013,1771,1543,22236,17364,-1936,-784,-13575,-27356
192737,2037,1756,1301,27744,17864,8156,-800,-3798,-14524
192747,2039,1738,1112,25792,18216,-1768,-768,5974,-3226
192757,2045,1712,1225,17036,16356,5828,-784,5329,7629
192767,2057,1688,1269,13864,19276,4028,-784,1805,12951
192777,2065,1671,1443,23224,9168,-12280,-800,-5875,-616
192787,2041,1643,1192,32767,4860,-13060,-800,-17230,-32768
192797,2009,1637,1326,32767,-5332,4652,-752,-28668,-32768
192807,2040,1641,1173,24644,2444,7796,-800,-21816,2231
192817,2035,1628,1236,5932,9752,5028,-784,12696,27312
192827,2041,1611,1275,10720,9204,7036,-784,32767,32767
192837,2025,1587,1303,14188,6512,-3212,-784,21782,31170
192847,2031,1642,1246,6568,4940,-10948,-784,-2418,57
192857,2039,1580,1259,13572,4976,-4056,-784,-7408,-10886
192867,2035,1575,1269,11768,8160,-2488,-800,-7893,-14072
192877,2039,1568,1293,22960,11424,10160,-800,-9620,-21587
192887,2035,1556,1262,21832,1268,5692,-816,-4531,-11513
192897,2031,1555,1292,20100,1856,-2436,-832,-358,624
192907,2039,1553,1277,17108,2540,-2000,-768,5260,5415
192917,2031,1541,1255,14824,5128,-2848,-816,9251,4436
192927,2028,1530,1251,13836,6756,-6504,-832,6491,3043
192937,2037,1525,1272,14204,7952,-6468,-816,988,42
192947,2035,1517,1311,14424,7516,-3132,-752,-2963,-2062
192957,2036,1511,1263,15524,6752,-812,-768,-2626,-2534
192967,2032,1507,1268,17148,6620,-648,-816,-589,-1920
192977,2037,1501,1263,17764,7392,-56,-784,1372,-454
192987,2037,1500,1254,17324,8012,-1280,-800,2553,784
192997,2025,1493,1259,16160,7728,-1964,-800,1040,1552
193007,2031,1490,1268,16168,8380,-308,-784,-547,1748
193017,2037,1485,1268,16156,9284,468,-800,118,609
193027,2035,1480,1259,15200,9520,16,-800,1409,-632
193037,2036,1471,1261,14904,9864,-644,-784,1726,-755
193047,2037,1468,1257,15776,10956,-684,-800,1203,-896
193057,2035,1481,1267,16428,11348,-964,-768,709,-1373
193067,2035,1459,1257,16632,11112,-1584,-784,-451,-1751
193077,2032,1455,1261,17048,10580,-1860,-752,-1971,-2030
193087,2035,1451,1257,16284,10096,-952,-768,-1989,-1891
193097,2037,1449,1254,16176,9828,-556,-784,-366,-1850
193107,2035,1445,1257,16016,9460,-912,-800,824,-1787
193117,2035,1439,1257,15800,9816,-1584,-768,1557,-1237
193127,2036,1435,1255,15520,9124,-3180,-784,1864,-2104
193137,2031,1435,1259,15692,8740,-3332,-784,1224,-3049
193147,2035,1418,1257,16004,8580,-2780,-832,477,-2993
193157,2035,1437,1245,16020,7812,-3412,-784,618,-2774
193167,2031,1425,1243,15788,5860,-5132,-784,-77,-2628
193177,2031,1422,1251,15668,5424,-4192,-800,-577,-1598
193187,2031,1421,1246,15244,3864,-4624,-800,-1601,-656
193197,2031,1417,1238,15396,1768,-5560,-832,-3312,187
193207,2036,1415,1245,14036,-372,-4872,-800,-5535,890
193217,2029,1413,1245,13180,-440,-3484,-800,-5412,1869
193227,2035,1407,1255,12752,-524,-2336,-768,-3074,1937
193237,2035,1407,1245,13488,-1136,-2696,-800,297,757
193247,2035,1400,1244,14656,-2260,-4164,-784,2710,-966
193257,2029,1398,1247,15444,-3056,-4676,-784,3236,-2067
193267,2028,1395,1253,15900,-3640,-4268,-800,2061,-1159
193277,2037,1390,1247,16184,-2788,-1864,-784,1846,1311
193287,2030,1390,1242,15764,-2836,-1604,-784,2976,3300
193297,2037,1387,1228,15352,-3320,-2392,-800,3414,4075
193307,2043,1385,1237,14828,-4260,-2560,-768,2346,3663
193317,2035,1380,1239,14488,-5536,-1728,-784,477,2488
193327,2035,1380,1234,14572,-6508,-720,-752,-1735,1319
193337,2035,1372,1223,14744,-7284,-496,-800,-2900,-216
193347,2037,1372,1227,15260,-7764,-2248,-768,-2695,-2296
193357,2009,1377,1239,16200,-8740,-4992,-784,-2773,-4180
193367,2029,1370,1246,17064,-7784,-2908,-768,-1480,-4359
193377,2031,1369,1235,18096,-6568,-1580,-784,1170,-2731
193387,2031,1367,1237,18152,-4112,-2332,-768,3750,-394
193397,2031,1369,1241,17808,-1000,-4364,-800,5842,796
193407,2032,1368,1243,17360,1636,-4428,-816,7305,720
193417,2030,1365,1237,17728,3536,-2844,-784,7175,1277
193427,2061,1361,1235,18592,4408,-3116,-800,6382,2161
193437,2031,1357,1238,18112,6228,-2416,-784,5819,2625
193447,2011,1356,1235,17880,6128,-2324,-784,3681,3457
193457,2037,1357,1241,17388,6408,-1904,-800,1809,3327
193467,2035,1353,1229,16496,5056,-3004,-752,-604,2428
193477,2035,1353,1234,16160,5040,-2704,-768,-2635,641
193487,2036,1363,1223,16072,4280,-908,-768,-2709,-905
193497,2035,1341,1213,16492,3484,-1236,-800,-2189,-1415
193507,2031,1351,1215,16628,2996,-2568,-768,-2195,-1288
193517,2030,1353,1222,16720,2584,-2296,-768,-2297,-619
193527,2031,1349,1224,16448,1604,-1956,-816,-2185,71
193537,2035,1353,1215,15772,724,-2636,-784,-2355,492
193547,2031,1384,1213,15808,-464,-2984,-768,-3262,367
193557,2035,1405,1224,15936,-1528,-1736,-784,-4378,-76
193567,2031,1422,1225,15856,-2528,-1060,-784,-4414,-669
193577,2035,1426,1223,16060,-3540,-1584,-736,-4177,-1346
193587,2034,1715,1228,16236,-3912,-1776,-800,-3513,-1991
193597,2031,1466,1225,16720,-3708,-1472,-800,-1607,-2039
193607,2041,1451,1227,16804,-3540,-1768,-768,760,-1519
193617,2035,1403,1233,16884,-3228,-2600,-784,2378,-733
193627,2031,1247,1235,16788,-2952,-3260,-784,2844,-82
193637,2020,1103,1235,16488,-2456,-3204,-768,2467,240
193647,2025,1173,1234,16360,-2396,-3968,-816,1450,109
193657,2031,1213,1233,16420,-2372,-4164,-752,-233,-117
193667,2028,1257,1235,16324,-2324,-3636,-800,-1338,-133
193677,2029,1259,1231,16364,-2692,-3592,-768,-1895,140
193687,2031,1269,1229,16580,-2924,-3576,-784,-2386,468
193697,2031,1293,1229,16456,-2828,-3208,-768,-2387,767
193707,2037,1302,1225,16440,-2412,-2700,-784,-1890,1021
193717,2029,1349,1207,16480,-2040,-2600,-784,-1170,1091
193727,2031,1375,1223,16668,-1484,-2320,-784,-565,835
193737,2031,1363,1216,16764,-984,-1928,-784,-279,697
193747,2030,1315,1211,16940,-784,-1544,-784,-308,909
193757,2031,1224,1211,16652,-764,-1836,-800,-571,895
193767,2031,1195,1212,16524,-1012,-1780,-816,-812,604
193777,2031,1198,1210,16528,-1368,-1824,-784,-980,194
193787,2031,1113,1210,16560,-1868,-1776,-800,-839,-57
193797,2031,1087,1210,16692,-1916,-1992,-768,-155,-199
193807,2029,1143,1212,16680,-2104,-2280,-752,609,-43
193817,2031,1209,1210,16696,-1852,-2072,-768,1453,270
193827,2031,1324,1209,16732,-1488,-2504,-816,2010,508
193837,2031,1365,1211,16564,-896,-2640,-816,1775,358
193847,2029,1351,1211,16488,-844,-2896,-784,1077,163
193857,2031,1315,1213,16476,-968,-2896,-752,129,4
193867,2031,1310,1209,16488,-1268,-2720,-784,-583,-77
193877,2029,1316,1209,16572,-1672,-2832,-800,-735,-86
193887,2029,1326,1210,16652,-1500,-2620,-784,-340,6
193897,2030,1269,1209,16736,-1496,-2460,-816,132,343
193907,2030,1249,1209,16784,-1376,-2552,-736,87,509
193917,2029,1263,1208,16696,-1356,-2580,-768,-285,461
193927,2031,1277,1207,16524,-1324,-2440,-784,-484,524
193937,2027,1301,1208,16500,-1384,-2440,-768,-466,27
193947,2031,1322,1206,16736,-1416,-2212,-768,-286,-9
193957,2030,1333,1207,16828,-1308,-2064,-784,65,90
193967,2021,1309,1206,16800,-1336,-2072,-784,372,367
193977,2029,1302,1205,16576,-1312,-2260,-768,407,389
193987,2029,1301,1197,16552,-1236,-2256,-752,350,145
193997,2029,1293,1203,16540,-1156,-2132,-768,459,-59
194007,2030,1254,1203,16644,-932,-2432,-784,633,-126
194017,2031,1227,1204,16632,-912,-2736,-752,630,-135
194027,2029,1258,1205,16756,-740,-2460,-768,673,4
194037,2027,1261,1202,16880,-480,-2388,-768,675,145
194047,2029,1269,1203,16680,-468,-2684,-784,480,148
194057,2031,1244,1203,16568,-636,-2736,-768,-102,74
194067,2029,1240,1203,16628,-1064,-2812,-768,-876,21
194077,2029,1237,1204,16604,-1516,-2568,-784,-1299,-136
194087,2031,1244,1203,16524,-1804,-2572,-784,-1044,-264
194097,2029,1260,1191,16636,-1652,-2388,-768,-178,-70
194107,2038,1262,1203,16720,-1352,-2308,-784,635,221
194117,2029,1241,1199,16760,-1092,-2480,-768,834,429
194127,2029,1251,1199,16600,-976,-2728,-768,437,317
194137,2030,1237,1203,16584,-836,-2612,-752,4,65
194147,2028,1229,1199,16528,-796,-2572,-800,-138,-102
194157,2029,1239,1199,16528,-768,-2544,-768,-35,-114
194167,2028,1245,1186,16812,-568,-2588,-784,254,6
194177,2029,1259,1202,16712,-568,-2512,-768,389,148
194187,2026,1253,1202,16704,-596,-2608,-800,159,214
194197,2029,1263,1199,16596,-552,-2728,-752,-140,195
194207,2031,1246,1197,16540,-596,-2452,-752,-108,101
194217,2029,1256,1199,16604,-740,-2388,-768,32,36
194227,2031,1255,1198,16688,-600,-2492,-752,7,120
194237,2029,1275,1197,16596,-888,-2460,-752,-81,147
194247,2007,1290,1184,16680,-1020,-2248,-768,-273,117
194257,2065,1241,1195,16464,-1128,-2304,-736,-83,82
194267,2028,1245,1193,16500,-1152,-2884,-768,159,5
194277,2028,1234,1195,16644,-1084,-2604,-768,241,-29
194287,2029,1211,1196,16596,-1044,-2596,-736,240,15
194297,2023,1221,1193,16620,-1224,-2584,-800,137,164
194307,2029,1203,1193,16520,-1056,-2580,-800,231,170
194317,2029,1209,1195,16656,-1008,-2504,-784,443,65
194327,2029,1206,1193,16648,-824,-2688,-752,661,25
194337,2029,1213,1194,16624,-592,-2756,-768,674,296
194347,2029,1199,1194,16692,-476,-2840,-784,490,220
194357,2023,1211,1196,16712,-268,-3036,-752,306,178
194367,2024,1212,1193,16568,-176,-3044,-736,376,154
194377,2029,1255,1193,16772,-40,-3032,-800,482,225
194387,2031,1255,1190,16780,104,-3044,-752,445,464
194397,2029,1273,1187,16788,68,-2880,-768,247,540
194407,2031,1261,1191,16644,-160,-2776,-768,-307,662
194417,2031,1251,1191,16560,-464,-2440,-768,-562,551
194427,2030,1242,1189,16608,-952,-2380,-752,-672,265
194437,2029,1231,1189,16688,-1128,-2392,-752,-637,57
194447,2028,1239,1193,16640,-1160,-2268,-784,-314,78
194457,2027,1229,1189,16896,-1060,-2492,-784,37,216
194467,2029,1213,1180,16808,-844,-2616,-720,256,327
194477,2030,1222,1191,16628,-740,-2748,-784,278,397
194487,2027,1224,1191,16492,-616,-2932,-768,92,408
194497,2031,1229,1189,16692,-664,-2912,-784,-275,371
194507,2029,1235,1191,16696,-804,-2668,-784,-389,290
194517,2029,1236,1191,16760,-896,-2492,-800,-160,318
194527,2031,1215,1188,16788,-892,-2604,-768,-63,380
194537,2028,1215,1190,16724,-1020,-2732,-752,-45,406
194547,2029,1235,1189,16688,-1184,-2248,-752,-5,417
194557,2029,1225,1180,16664,-864,-2260,-736,319,505
194567,2027,1209,1187,16480,-632,-2428,-720,571,428
194577,2029,1215,1189,16552,-596,-2852,-784,125,345
194587,2029,1225,1187,16628,-772,-2728,-800,-466,352
194597,2029,1213,1187,16640,-856,-2340,-768,-493,363
194607,2029,1208,1189,16600,-844,-2480,-800,-172,272
194617,2029,1208,1188,16724,-880,-2648,-768,-128,295
194627,2028,1262,1187,16684,-1032,-2636,-768,-318,453
194637,2029,1211,1187,16552,-1004,-2608,-784,-366,428
194647,2028,1206,1179,16604,-1044,-2628,-736,-226,317
194657,2028,1209,1187,16812,-996,-2640,-784,-89,394
194667,2029,1213,1187,16732,-996,-2604,-752,-136,442
194677,2029,1224,1183,16672,-852,-2896,-784,-299,536
194687,2029,1228,1187,16688,-764,-2736,-752,-326,558
194697,2029,1211,1183,16652,-552,-2776,-784,-233,537
194707,2027,1227,1187,16664,-640,-2708,-768,-383,519
194717,2031,1225,1187,16596,-600,-2500,-768,-480,582
194727,2028,1213,1186,16552,-664,-2588,-752,-572,694
194737,2030,1222,1183,16688,-752,-2640,-768,-491,633
194747,2029,1229,1181,16644,-616,-2276,-736,-299,376
194757,2027,1234,1181,16784,-664,-2220,-720,-193,618
194767,2028,1227,1179,16752,-408,-2160,-736,-197,714
194777,2028,1226,1179,16756,-468,-2208,-768,-269,739
194787,2029,1197,1179,16604,-516,-2332,-752,-482,659
194797,2029,1199,1178,16572,-572,-2064,-752,-693,510
194807,2029,1205,1180,16740,-708,-2192,-736,-805,428
194817,2029,1215,1180,16704,-752,-2008,-768,-728,399
194827,2029,1204,1179,16812,-932,-2024,-736,-483,362
194837,2029,1213,1178,16592,-904,-1864,-736,-185,409
194847,2029,1214,1179,16744,-884,-2180,-784,85,393
194857,2028,1209,1178,16740,-752,-2136,-736,195,365
194867,2027,1195,1180,16712,-712,-2160,-768,168,333
194877,2029,1187,1181,16636,-724,-2368,-784,-27,315
194887,2027,1187,1179,16620,-656,-2160,-784,-207,272
194897,2027,1196,1182,16676,-876,-2352,-736,-178,253
194907,2028,1203,1178,16684,-1012,-2436,-752,-133,229
194917,2029,1221,1181,16852,-992,-2416,-784,-108,245
194927,2029,1213,1179,16712,-856,-2248,-768,-106,320
194937,2028,1204,1177,16720,-944,-2256,-768,-110,336
194947,2027,1204,1179,16688,-904,-2240,-768,-258,250
194957,2027,1195,1178,16524,-1120,-2344,-768,-316,187
194967,2029,1199,1179,16692,-1248,-2348,-768,-260,135
194977,2027,1207,1177,16612,-1120,-2400,-784,2,111
194987,2027,1208,1178,16700,-980,-2332,-768,276,169
194997,2025,1209,1178,16804,-900,-2472,-752,203,312
195007,2025,1203,1177,16664,-924,-2544,-768,-127,357
195017,2028,1191,1177,16480,-848,-2452,-768,-313,229
195027,2029,1197,1177,16544,-1088,-2328,-752,-227,138
195037,2028,1183,1175,16772,-940,-2208,-784,34,77
195047,2027,1183,1177,16812,-956,-2168,-768,188,173
195057,2027,1181,1176,16712,-1016,-2224,-768,86,272
195067,2028,1183,1175,16688,-1044,-2248,-768,20,275
195077,2029,1192,1175,16640,-936,-2336,-800,147,117
195087,2028,1198,1174,16552,-956,-2328,-768,284,42
195097,2031,1183,1174,16760,-812,-2424,-752,303,81
195107,2017,1191,1173,16784,-844,-2500,-768,253,162
195117,2029,1205,1174,16732,-640,-2264,-752,245,259
195127,2029,1145,1174,16644,-660,-2512,-736,226,219
195137,2029,1203,1176,16624,-704,-2496,-768,125,155
195147,2029,1199,1175,16604,-740,-2400,-784,51,100
195157,2028,1210,1176,16816,-768,-2224,-784,-16,166
195167,2029,1207,1175,16732,-700,-2132,-768,64,141
195177,2027,1195,1175,16724,-572,-2204,-784,137,235
195187,2027,1181,1174,16564,-748,-2200,-736,73,195
195197,2028,1188,1173,16464,-772,-2136,-736,-8,89
195207,2027,1183,1171,16596,-784,-2328,-768,43,2
195217,2028,1187,1174,16712,-944,-2380,-768,47,-30
195227,2029,1199,1173,16712,-740,-2400,-768,97,28
195237,2027,1192,1173,16792,-632,-2308,-768,167,126
195247,2029,1191,1173,16876,-784,-2328,-736,160,180
195257,2029,1227,1173,16680,-696,-2124,-736,140,123
195267,2029,1189,1173,16556,-836,-2384,-752,130,30
195277,2027,1195,1171,16640,-820,-2328,-768,72,-43
195287,2029,1195,1171,16732,-928,-2212,-736,123,-19
195297,2027,1193,1171,16732,-852,-2564,-784,238,80
195307,2027,1193,1171,16740,-892,-2580,-768,243,143
195317,2027,1195,1184,16620,-840,-2432,-768,148,180
195327,2027,1191,1171,16628,-876,-2564,-784,43,182
195337,2028,1191,1166,16616,-940,-2568,-752,-57,141
195347,2029,1179,1171,16604,-876,-2524,-752,-43,66
195357,2027,1164,1171,16676,-1032,-2464,-752,6,105
195367,2027,1183,1171,16632,-816,-2484,-736,13,138
195377,2027,1194,1173,16836,-880,-2428,-784,10,184
195387,2027,1195,1171,16648,-832,-2532,-752,21,165
195397,2029,1189,1170,16676,-900,-2368,-768,70,178
195407,2029,1182,1169,16672,-740,-2408,-768,104,109
195417,2027,1189,1169,16672,-776,-2464,-752,185,125
195427,2027,1177,1171,16824,-660,-2516,-768,135,210
195437,2023,1215,1170,16644,-840,-2596,-768,-186,227
195447,2031,1176,1170,16516,-856,-2616,-752,-277,219
195457,2027,1176,1167,16604,-984,-2428,-784,-192,131
195467,2028,1177,1167,16700,-932,-2548,-752,-81,122
195477,2028,1182,1167,16748,-1048,-2452,-816,-128,197
195487,2027,1176,1170,16684,-1024,-2440,-736,-121,295
195497,2028,1179,1169,16632,-952,-2332,-752,-56,308
195507,2028,1173,1169,16568,-936,-2568,-752,-48,228
195517,2027,1174,1169,16656,-1008,-2492,-768,-110,132
195527,2029,1176,1165,16756,-980,-2492,-736,-83,177
195537,2029,1191,1165,16852,-740,-2492,-784,13,266
195547,2026,1189,1169,16784,-696,-2392,-768,171,346
195557,2031,1188,1169,16636,-404,-2456,-768,180,332
195567,2028,1184,1164,16668,-412,-2280,-736,104,220
195577,2028,1175,1166,16652,-452,-2320,-736,-55,232
195587,2027,1177,1166,16688,-428,-2480,-752,-92,167
195597,2027,1176,1165,16816,-500,-2456,-768,-91,144
195607,2027,1181,1164,16712,-604,-2352,-736,-123,174
195617,2029,1174,1163,16640,-584,-2268,-784,-85,205
195627,2027,1182,1163,16780,-644,-2428,-720,-47,188
195637,2028,1184,1165,16704,-672,-2372,-736,-53,179
195647,2026,1187,1175,16652,-628,-2424,-752,-94,225
195657,2027,1181,1163,16616,-516,-2352,-784,-63,206
195667,2025,1146,1164,16740,-744,-2336,-736,-125,172
195677,2027,1172,1163,16652,-740,-2464,-736,-208,124
195687,2027,1119,1163,16576,-768,-2332,-768,-252,120
195697,2028,1196,1164,16696,-724,-2500,-768,-192,155
195707,2028,1191,1163,16748,-684,-2392,-752,-185,230
195717,2027,1182,1163,16688,-836,-2520,-768,-275,238
195727,2028,1179,1165,16604,-992,-2460,-736,-421,198
195737,2028,1177,1164,16648,-960,-2652,-768,-499,213
195747,2027,1173,1163,16516,-1284,-2504,-752,-430,210
195757,2028,1173,1163,16640,-1380,-2204,-736,-260,204
195767,2023,1177,1164,16676,-1256,-2240,-752,-67,241
195777,2029,1173,1163,16692,-1160,-2248,-752,78,220
195787,2027,1165,1163,16668,-1112,-2240,-752,-21,248
195797,2046,1172,1163,16692,-1052,-2416,-752,-115,235
195807,2023,1176,1163,16556,-996,-2256,-736,-93,229
195817,2029,1165,1161,16552,-856,-2420,-784,-5,205
195827,2028,1175,1164,16644,-888,-2432,-752,67,194
195837,2027,1177,1161,16740,-776,-2476,-736,101,275
195847,2026,1180,1163,16584,-728,-2428,-768,72,335
195857,2025,1184,1162,16564,-724,-2420,-768,-104,294
195867,2027,1183,1161,16632,-732,-2484,-768,-263,257
195877,2029,1177,1177,16712,-884,-2428,-768,-260,257
195887,2027,1241,1161,16688,-980,-2496,-784,-213,310
195897,2027,1179,1160,16616,-924,-2068,-736,-106,360
195907,2028,1173,1160,16692,-968,-2188,-752,53,308
195917,2027,1164,1159,16704,-852,-2352,-752,117,219
195927,2027,1165,1161,16640,-780,-2360,-768,75,209
195937,2027,1167,1161,16736,-804,-2412,-752,27,202
195947,2029,1151,1160,16672,-756,-2448,-752,25,228
195957,2027,1167,1161,16668,-656,-2404,-768,74,235
195967,2029,1167,1151,16604,-688,-2572,-736,-7,326
195977,2027,1157,1149,16672,-828,-2440,-768,-124,331
195987,2027,1167,1161,16720,-892,-2348,-768,-120,274
195997,2028,1163,1161,16764,-844,-2340,-736,-13,307
196007,2029,1173,1159,16592,-760,-2252,-768,7,368
196017,2027,1148,1160,16840,-1044,-2352,-736,-253,262
196027,2029,1149,1161,16708,-1612,-2952,-784,-891,-118
196037,2028,1176,1159,16560,-2252,-3004,-768,-1116,-130
196047,2028,1179,1157,16436,-2360,-2288,-768,-166,128
196057,2027,1150,1160,16800,-2088,-2660,-784,1200,288
196067,2027,1111,1162,16656,-2112,-2804,-752,1744,505
196077,2029,1139,1164,16552,-1856,-2620,-800,1467,1040
196087,2029,1107,1163,16260,-1656,-2260,-752,1020,1404
196097,2027,1015,1159,16212,-1424,-1632,-736,607,1531
196107,2026,977,1160,16236,-1364,-1760,-768,103,894
196117,2027,904,1163,16616,-1888,-2360,-800,-727,87
196127,2030,953,1163,16576,-2272,-1684,-768,-1040,10
196137,2030,989,1163,16508,-2576,-2388,-736,-454,301
196147,2027,1171,1165,16500,-2716,-2640,-752,161,838
196157,2027,1149,1162,16332,-3012,-2636,-736,828,1121
196167,2027,1051,1161,16256,-3092,-2748,-768,950,1349
196177,2027,1142,1161,16152,-3408,-2956,-752,427,1429
196187,2027,1299,1161,16332,-3656,-2456,-768,-107,1216
196197,2027,1301,1161,16304,-3784,-2444,-752,-480,963
196207,2027,1378,1165,16264,-4292,-2824,-752,-654,866
196217,2028,1511,1165,15900,-4904,-3204,-736,-382,1000
196227,2026,1372,1161,16020,-5008,-2720,-752,91,1185
196237,2025,1372,1127,16236,-4488,-1836,-752,755,1620
196247,2029,1397,1146,16352,-3936,-2156,-768,1601,1966
196257,2028,1303,1147,16400,-3520,-2336,-768,636,2043
196267,2029,1209,1150,16884,-3088,-1688,-768,-1293,1834
196277,2025,1064,1159,16672,-2484,-244,-768,-2726,1738
196287,2025,623,1145,16508,-1400,1508,-752,-2460,1797
196297,2026,633,1143,16120,548,2212,-736,-851,1700
196307,2027,1413,1135,14980,3064,2536,-736,2115,1759
196317,2028,1273,1139,15396,6292,1024,-752,5359,641
196327,2039,1204,1145,15628,7848,-1776,-752,6595,-1543
196337,2031,1184,1164,15884,8688,-3512,-736,3989,-3221
196347,2028,1178,1166,16416,8716,-2684,-736,-1001,-2905
196357,2023,1165,1166,16608,6624,-2280,-752,-6489,-1254
196367,2027,1164,1167,15536,3596,-1804,-752,-8528,-221
196377,2027,1163,1143,14620,1664,-268,-784,-8160,1137
196387,2028,1166,1135,14812,880,-120,-736,-5457,1451
196397,2031,1163,1141,14380,360,-552,-768,-3952,706
196407,2029,1163,1149,16296,516,748,-768,-4659,-678
196417,2029,1157,1150,19000,2540,3560,-768,-4279,-2702
196427,2026,1159,1147,18748,3308,1996,-736,-518,-4809
196437,2035,1165,1161,15640,2432,-3096,-784,2817,-5077
196447,2031,1160,1151,13216,1700,-7232,-768,3336,-4205
196457,2031,1160,1129,13336,1732,-9772,-752,1833,-4204
196467,2023,1161,1131,16312,3460,-9940,-784,-518,-4296
196477,2021,1163,1124,17816,4852,-8384,-704,-1754,-3370
196487,2023,1163,1143,17524,5692,-8088,-752,-1908,-838
196497,1997,1164,1147,16852,4948,-8936,-784,-2541,2191
196507,2035,1163,1156,16800,3344,-8844,-736,-5205,3768
196517,2023,1160,1147,16324,2484,-4500,-768,-7536,5321
196527,2027,1161,1159,16048,1772,-816,-768,-6147,5975
196537,2026,1159,1145,15848,1344,232,-768,-2612,4042
196547,2029,1161,1150,14804,1168,404,-784,1307,2245
196557,2027,1159,1160,14488,2312,-512,-768,3974,1458
196567,2025,1160,1157,14448,5252,-1184,-768,5591,1867
196577,2027,1163,1149,15648,6896,-3248,-752,6001,832
196587,2025,1161,1146,16088,7712,-4712,-752,3721,-100
196597,2026,1161,1159,15920,7840,-3600,-768,-273,1271
196607,2024,1160,1159,15640,8124,-1912,-752,-2907,3387
196617,2030,1161,1171,15952,7704,-2136,-784,-3093,3250
196627,2027,1159,1169,14944,5980,-1676,-736,-3293,2681
196637,2031,1159,1165,15028,5864,-860,-752,-2437,2892
196647,2027,1161,1159,15340,7284,-64,-768,1330,2405
196657,2027,1161,1145,15196,9236,-952,-768,5097,1687
196667,2023,1169,1141,16044,10640,-2512,-752,4498,1418
196677,2025,1163,1167,15648,12048,-2016,-736,2209,2354
196687,2027,1161,1203,14896,12544,-764,-768,1046,3554
196697,2025,1160,1183,14940,10940,-1292,-784,477,2732
196707,2025,1159,1141,15248,10736,208,-768,38,2648
196717,2027,1159,1163,15288,11088,1772,-752,2813,3386
196727,2031,1159,1134,14892,9528,788,-784,5496,3831
196737,2029,1157,1071,14940,10296,1744,-768,7765,4696
196747,2027,1159,1059,15296,11372,2228,-752,11299,4460
196757,2029,1159,1075,16240,13776,84,-752,12756,2842
196767,2035,1161,1195,15620,15248,1780,-736,12689,2131
196777,2021,1159,1131,16260,15972,280,-768,10939,2162
196787,2025,1159,1127,16948,19120,424,-752,8616,1694
196797,2021,1150,1087,15740,20644,1608,-768,9577,847
196807,2011,1147,1061,17620,20984,-308,-736,8644,-1788
196817,2031,1086,1445,18036,21340,772,-784,6357,-2977
196827,1981,1179,1325,19380,24560,720,-768,7995,-4407
196837,2004,1159,1139,22420,26912,-10596,-752,8427,-9594
196847,2056,1145,1247,26260,26088,-9704,-784,3421,-11538
196857,2076,1165,1140,32767,21432,-12384,-736,-3405,-13396
196867,2041,1164,1018,32767,15332,-16116,-752,-12528,-20196
196877,2038,1157,999,32767,6116,-3480,-752,-18948,-16315
196887,2037,1164,925,32767,-832,-2716,-768,-19680,-4978
196897,1983,1173,942,32767,-2164,-3076,-752,-9927,6033
196907,1951,1175,1240,26256,-1772,-2188,-736,4452,12794
196917,1946,1195,1341,15628,208,-5460,-736,10471,18447
196927,2059,935,1047,8084,1344,-9068,-720,2567,27617
196937,2119,667,909,4852,-1952,-4560,-752,-10479,32767
196947,2075,837,931,3536,-8540,-6568,-752,-23802,32767
196957,2043,1323,1056,5404,-13936,-6016,-736,-32353,18935
196967,2043,1944,1171,300,-16540,-1752,-752,-32768,4938
196977,2041,1907,1279,680,-18928,28,-784,-25690,-4331
196987,1997,1591,1244,14320,-19176,9532,-752,-17618,-8879
196997,2003,783,1235,11468,-9124,11656,-768,-9326,-12242
197007,2015,296,1321,2616,-6580,-3024,-736,5428,-3714
197017,2037,489,1292,1364,-8544,784,-768,24052,-3614
197027,2022,794,1134,7164,-3896,-22300,-768,8898,3976
197037,2025,1241,1093,4392,-6256,-7172,-768,-8572,10787
197047,2025,1385,1112,1968,-4932,5316,-768,-13174,15905
197057,2013,1225,1115,-540,-5104,6244,-768,-8726,15714
197067,2008,972,1107,-1656,-5916,712,-784,-2196,11294
197077,2022,949,1151,-892,-5804,-7776,-752,5613,7571
197087,2027,903,1132,-700,-7236,-7164,-736,2878,6939
197097,2029,1005,1116,-844,-5312,-4756,-784,676,4568
197107,2031,1080,1123,336,-4664,648,-720,-2254,3050
197117,2027,1181,1127,692,-2508,2464,-768,-2790,2692
197127,2028,1187,1177,400,-760,4112,-752,792,3230
197137,2028,1151,1189,-52,-652,4480,-768,5785,4471
197147,2031,1008,1160,-536,-792,2684,-752,9027,5606
197157,2011,923,1161,164,-428,2028,-784,9146,6208
197167,2025,1097,1167,184,24,1656,-768,7361,4886
197177,2039,1097,1164,1164,1440,2908,-736,5532,1690
197187,2029,1527,1133,1652,1760,2980,-752,4523,-1678
197197,2021,1387,1127,3528,1820,1412,-768,2478,-3633
197207,2021,911,1114,2596,908,-216,-768,-90,-4474
197217,2025,1144,1177,1816,-436,-2900,-720,-371,-5580
197227,2019,1779,1294,5120,-3884,-5988,-800,-1373,-5377
197237,2067,2175,756,18224,-12276,2012,-784,-3973,-5271
197247,1965,0,1052,32767,-7336,10688,-752,-17071,-14280
197257,2227,297,491,30636,11516,-4760,-736,6215,-32768
197267,2137,2377,70,-4620,5320,-19888,-720,32767,-24131
197277,1877,2351,1711,1664,3904,-5264,-784,29461,21684
197287,1844,0,2331,32767,20736,32767,-736,32767,32767
197297,2096,941,414,26796,32767,-32768,-768,32767,6117
197307,2011,1750,615,32767,23624,-32768,-800,32767,-32768
197317,1893,2105,1575,23976,13404,23480,-800,-14762,-14315
197327,2089,2119,957,27924,8968,32767,-752,-32768,-10328
197337,2067,2063,271,32767,25276,-27332,-784,-32714,-8956
197347,2069,1995,183,32767,9984,-14680,-768,-27748,-25843
197357,2061,1917,653,32767,3188,9280,-752,-19176,-17785
197367,2043,1877,1113,32767,3756,2532,-784,-6953,-2149
197377,2039,1843,1061,32767,5544,-924,-768,5978,11198
197387,2059,1813,983,24200,17804,4888,-784,21452,18202
197397,2039,1784,1006,10904,21192,2596,-800,27491,24444
197407,2033,1757,1132,252,22356,-1984,-768,17898,27510
197417,2037,1738,1204,-8088,24464,-2748,-752,8177,17517
197427,2026,1720,1175,-1940,21368,-6008,-800,1113,1892
197437,2021,1701,1187,-612,18196,-10532,-768,-9643,-6773
197447,2027,1683,1196,868,15460,-1240,-768,-16697,-11326
197457,2043,1672,1187,1712,15072,1808,-752,-12638,-11073
197467,2043,1657,1131,4808,15276,-1312,-784,-11651,-17446
197477,2040,1645,1112,11248,6396,-812,-752,-13808,-13488
197487,2037,1639,1073,17620,5604,-2148,-800,-12743,-11170
197497,2038,1625,1135,21524,4644,-4396,-800,-12483,-11047
197507,2029,1634,1147,26284,3816,-2864,-768,-6373,-12330
197517,2014,1617,1109,32767,1568,-9396,-768,105,-21590
197527,2046,1599,1148,32767,556,-7300,-800,-2500,-25948
197537,2025,1593,1175,29188,-2912,-4584,-768,-7919,-2808
197547,2027,1594,1087,18936,6848,-56,-736,3016,18520
197557,2037,1578,1129,8688,11572,2292,-784,17535,29909
197567,2037,1579,1125,5104,13976,1632,-768,21886,32767
197577,2029,1573,1159,4840,12636,-3868,-768,14723,28678
197587,2037,1568,1131,5108,12608,-10976,-784,647,6857
197597,2044,1559,1124,13692,8160,-4056,-784,-6099,-6406
197607,2039,1549,1111,8576,7144,-164,-784,-8033,-16179
197617,2042,1503,1131,26140,11040,-12312,-800,-21125,-28363
197627,2036,1533,1149,19636,8560,11996,-768,-11057,-18114
197637,2030,1531,1119,20620,8800,1216,-768,2335,-5317
197647,2027,1528,1144,19972,9248,-4548,-784,10745,4510
197657,2037,1523,1127,18976,10636,-1500,-784,12895,9593
197667,2038,1516,1126,17408,11584,-944,-752,10657,11549
197677,2035,1515,1130,14692,12716,-3640,-752,7166,9043
197687,2037,1509,1143,12424,12444,-3816,-768,3853,4567
197697,2038,1531,1141,11872,12640,-1884,-752,1441,308
197707,2037,1496,1101,13464,12340,-1684,-784,101,-2619
197717,2035,1496,1139,15300,11324,-2228,-736,-1086,-4002
197727,2035,1491,1136,16788,10640,-1704,-768,-1769,-3612
197737,2040,1489,1132,17588,9620,-1292,-784,-1537,-2467
197747,2031,1485,1133,17608,9124,-1436,-768,-484,-699
197757,2031,1481,1131,16792,8812,-1272,-736,1191,1338
197767,2031,1477,1129,16428,7996,-2616,-768,1984,2377
197777,2030,1471,1132,15492,6580,-3440,-768,831,2816
197787,2031,1468,1135,15020,6468,-2400,-784,-686,3350
197797,2031,1464,1142,14820,5308,-1876,-784,-1116,3097
197807,2031,1463,1131,13900,3536,-2096,-800,-911,1791
197817,2022,1461,1125,13968,2508,-2360,-752,-1744,803
197827,2029,1455,1131,14604,736,-2760,-784,-3856,920
197837,2035,1451,1131,13624,296,-1856,-752,-4623,976
197847,2037,1453,1125,13540,-228,-1796,-784,-4346,617
197857,2030,1449,1115,13264,-396,-2700,-768,-3199,349
197867,2035,1449,1116,13080,-1440,-4184,-720,-2896,-56
197877,2031,1447,1127,13400,-2356,-3340,-784,-3328,-212
197887,2009,1445,1129,13824,-2552,36,-736,-2985,621
197897,2039,1437,1125,14584,-1048,3868,-800,-396,2095
197907,2039,1455,1127,13328,-2804,-1676,-784,1680,2573
197917,2027,1495,1134,12468,-5408,-7292,-736,-1797,1472
197927,2027,1528,1123,12580,-6644,-2584,-784,-6117,1543
197937,2035,1545,1114,13808,-8120,3204,-800,-5945,1921
197947,2036,1391,1095,14696,-9960,1360,-768,-4420,335
197957,2036,1306,1093,15488,-9728,-2500,-752,-3437,-3175
197967,2029,1499,1113,17152,-7716,448,-752,-381,-5778
197977,2031,1531,1128,19748,-7408,2820,-768,4064,-6490
197987,2031,1325,1141,20004,-8024,1244,-768,4735,-5064
197997,2035,1243,1157,19292,-8880,-2524,-736,1130,-3082
198007,2031,1223,1162,18036,-9344,-4572,-768,-2715,-1532
198017,2031,1199,1177,16588,-10536,-5340,-784,-2970,-1293
198027,2031,1272,1161,16160,-10204,-6796,-736,-1171,-1842
198037,2035,1375,1160,16728,-7772,-6592,-768,2799,-2411
198047,2028,1482,1159,17352,-5224,-7196,-784,6165,-1803
198057,2029,1461,1157,17832,-2292,-6628,-768,7722,-146
198067,2029,1381,1149,17800,204,-4588,-784,8159,2054
198077,2030,1395,1141,17672,1944,-3124,-784,6706,4310
198087,2027,1399,1143,16896,2960,-2008,-768,4501,5685
198097,2029,1395,1140,16032,2708,-1752,-752,1578,5856
198107,2031,1381,1131,15140,2292,-792,-784,-1634,4691
198117,2030,1365,1131,14868,1840,36,-768,-3508,2453
198127,2029,1365,1125,14908,1164,388,-768,-4157,204
198137,2027,1363,1135,15456,824,256,-752,-3528,-1195
198147,2029,1369,1129,16488,700,624,-768,-2062,-1722
198157,2029,1357,1133,17284,924,804,-768,131,-1343
198167,2031,1365,1125,17492,1592,-64,-768,2109,-651
198177,2031,1365,1125,17516,2240,-588,-768,3399,139
198187,2031,1364,1125,17244,3488,-1504,-784,3494,681
198197,2025,1357,1128,16828,3788,-2212,-784,2580,560
198207,2031,1359,1126,16604,3304,-2560,-768,875,-137
198217,2032,1353,1123,16512,2536,-2648,-752,-1076,-834
198227,2022,1352,1125,16692,1716,-2684,-752,-2070,-1166
198237,2030,1367,1123,17140,956,-2236,-800,-1747,-1210
198247,2029,1367,1118,17240,184,-1900,-752,-644,-842
198257,2029,1371,1133,17316,-88,-2068,-736,686,-287
198267,2029,1327,1107,17236,-248,-2384,-752,1261,287
198277,2027,1338,1133,16908,-232,-2228,-752,858,543
198287,2029,1353,1132,16520,-116,-1780,-768,612,212
198297,2029,1336,1132,16192,-464,-1888,-768,314,-201
198307,2029,1333,1132,16360,-400,-2332,-736,-386,-475
198317,2028,1327,1135,16360,-884,-2096,-784,-1155,-504
198327,2031,1350,1139,16468,-1432,-2096,-784,-1687,-389
198337,2030,1333,1131,16600,-2068,-2372,-720,-2232,-260
198347,2029,1311,1135,16532,-2208,-2132,-800,-2361,-225
198357,2027,1331,1133,16704,-2288,-1936,-784,-1978,-281
198367,2030,1327,1128,16836,-2028,-1992,-784,-1069,-180
198377,2032,1301,1129,16988,-1528,-2108,-768,-474,-14
198387,2030,1292,1129,16864,-1148,-2224,-800,-82,187
198397,2029,1307,1131,16864,-536,-2292,-768,301,302
198407,2029,1334,1135,16792,12,-2380,-800,576,175
198417,2030,1353,1131,16836,548,-2132,-736,860,-81
198427,2027,1349,1128,16944,948,-2032,-736,809,49
198437,2027,1341,1129,16800,936,-2560,-768,151,209
198447,2013,1351,1128,16608,360,-2428,-784,-689,164
198457,2031,1349,1123,16604,100,-1452,-768,-983,27
198467,2030,1315,1126,16704,-40,-1576,-736,-464,-151
198477,2029,1324,1129,16772,-268,-1584,-752,135,-405
198487,2029,1327,1117,16912,-480,-1364,-768,342,-246
198497,2030,1315,1127,16852,-388,-1624,-768,220,6
198507,2029,1293,1129,16784,-416,-2208,-784,135,-64
198517,2029,1285,1131,16548,-424,-2168,-784,118,-350
198527,2029,1287,1129,16536,-608,-2428,-768,-37,-454
198537,2026,1287,1128,16640,-772,-2728,-752,-253,-454
198547,2027,1267,1129,16664,-756,-2732,-768,-228,-382
198557,2027,1290,1132,16652,-804,-2744,-736,-123,-85
198567,2029,1278,1136,16712,-976,-2776,-784,-120,196
198577,2027,1291,1129,16632,-860,-2884,-736,-190,207
198587,2023,1321,1127,16736,-816,-2772,-768,-239,139
198597,2029,1307,1141,16792,-640,-2232,-752,-26,301
198607,2029,1277,1135,16832,-612,-2464,-736,-2,399
198617,2029,1288,1135,16728,-676,-2084,-784,-75,507
198627,2029,1301,1130,16704,-392,-1868,-784,97,506
198637,2029,1328,1131,16640,-320,-1776,-752,285,407
198647,2028,1317,1129,16700,-232,-1784,-752,418,313
198657,2029,1310,1128,16828,136,-1676,-752,473,304
198667,2037,1315,1127,16816,408,-1884,-768,395,346
198677,2029,1293,1127,16784,520,-2052,-752,218,363
198687,2029,1303,1131,16780,412,-2368,-752,-157,294
198697,2027,1326,1129,16704,260,-2116,-768,-649,181
198707,2028,1327,1128,16664,-8,-2008,-768,-662,143
198717,2028,1309,1127,16644,-392,-2208,-752,-385,151
198727,2027,1309,1129,16768,-416,-2260,-736,-111,210
198737,2027,1319,1129,16732,-412,-2172,-736,7,331
198747,2029,1324,1129,16728,-420,-1956,-768,67,347
198757,2027,1295,1125,16824,-116,-2044,-768,121,239
198767,2027,1285,1127,16728,-180,-2112,-752,-61,181
198777,2027,1276,1127,16696,-372,-2200,-736,-429,196
198787,2027,1259,1129,16700,-600,-1940,-768,-649,179
198797,2028,1262,1129,16692,-780,-2180,-752,-526,133
198807,2027,1269,1127,16700,-716,-2032,-752,-173,156
198817,2028,1272,1129,16752,-820,-2144,-736,78,238
198827,2027,1245,1131,16752,-880,-2336,-752,-51,402
198837,2030,1275,1129,16808,-768,-2212,-752,-54,239
198847,2026,1297,1127,16816,-788,-1820,-736,266,119
198857,2028,1275,1127,16932,-548,-2144,-736,394,228
198867,2027,1260,1128,16720,-512,-2244,-768,148,353
198877,2029,1275,1127,16684,-628,-2164,-752,-51,268
198887,2029,1269,1127,16608,-564,-1888,-752,-141,199
198897,2028,1267,1127,16688,-400,-2060,-768,-144,177
198907,2027,1271,1128,16788,-444,-2124,-736,-80,142
198917,2025,1293,1129,16768,-504,-2036,-736,-35,139
198927,2027,1285,1126,16744,-484,-1928,-752,39,179
198937,2027,1276,1125,16748,-216,-2124,-752,96,218
198947,2027,1269,1127,16688,-128,-2160,-752,-18,171
198957,2029,1261,1115,16784,-316,-2240,-752,-271,158
198967,2027,1272,1130,16792,-500,-2140,-752,-358,152
198977,2027,1304,1129,16672,-584,-1960,-752,54,-22
198987,2027,1223,1128,17000,-616,-1932,-736,246,-215
198997,2029,1259,1127,16852,-736,-2160,-784,26,45
199007,2027,1272,1129,16688,-684,-2324,-752,-43,208
199017,2026,1269,1126,16700,-636,-2084,-736,278,92
199027,2029,1257,1128,16600,-612,-2232,-768,404,36
199037,2025,1285,1127,16728,-596,-2552,-768,28,110
199047,2027,1293,1129,16784,-568,-2256,-736,-318,224
199057,2025,1253,1125,16788,-676,-2256,-736,-267,232
199067,2025,1239,1127,16644,-888,-2388,-800,-88,69
199077,2027,1253,1125,16640,-868,-2028,-736,10,56
199087,2026,1260,1129,16680,-864,-2212,-720,107,216
199097,2027,1257,1127,16700,-812,-2372,-704,235,266
199107,2027,1273,1125,16712,-652,-2420,-704,210,180
199117,2027,1289,1125,16788,-560,-2160,-784,167,258
199127,2027,1263,1128,16664,-520,-2200,-752,109,315
199137,2027,1258,1129,16708,-500,-2160,-736,78,279
199147,2027,1250,1127,16616,-460,-2064,-784,73,235
199157,2036,1243,1126,16676,-252,-2184,-736,88,223
199167,2025,1233,1127,16800,-384,-2408,-752,-22,316
199177,2027,1241,1125,16564,-460,-2204,-752,-184,322
199187,2027,1241,1127,16648,-548,-2088,-736,-235,283
199197,2027,1273,1131,16756,-728,-2032,-720,-157,287
199207,2027,1275,1128,16708,-760,-2220,-752,-62,176
199217,2027,1264,1127,16788,-672,-1588,-768,188,257
199227,2027,1257,1127,16852,-616,-1948,-736,369,125
199237,2027,1262,1123,16748,-264,-2188,-720,313,347
199247,2029,1259,1124,16552,-356,-2200,-736,202,316
199257,2026,1252,1123,16656,-484,-2088,-736,-4,270
199267,2027,1262,1123,16616,-564,-2304,-752,-172,196
199277,2027,1259,1127,16684,-660,-2172,-736,-191,230
199287,2027,1246,1127,16804,-668,-2008,-720,0,280
199297,2027,1242,1127,16796,-524,-1976,-752,237,390
199307,2029,1244,1127,16784,-460,-2152,-736,214,453
199317,2026,1244,1127,16604,-392,-2200,-752,45,428
199327,2027,1239,1127,16540,-516,-2052,-720,-231,318
199337,2027,1224,1127,16712,-580,-2300,-768,-363,247
199347,2027,1227,1126,16716,-484,-1856,-768,-79,219
199357,2027,1231,1125,16844,-508,-1992,-752,211,290
199367,2023,1242,1125,16808,-424,-2088,-736,185,441
199377,2025,1257,1126,16724,-152,-1968,-736,153,481
199387,2026,1255,1121,16760,-208,-2048,-768,33,349
199397,2027,1239,1126,16732,-308,-2092,-768,-221,245
199407,2025,1228,1125,16716,-484,-2096,-752,-267,209
199417,2025,1237,1124,16732,-572,-2028,-736,-10,211
199427,2021,1242,1124,16768,-476,-2212,-768,134,321
199437,2055,1247,1123,16700,-496,-2220,-752,190,338
199447,2025,1250,1125,16664,-336,-2100,-720,215,333
199457,2027,1246,1127,16716,-328,-2168,-736,48,323
199467,2027,1240,1127,16604,-380,-2212,-752,-214,304
199477,2026,1240,1125,16788,-500,-2080,-752,-374,282
199487,2027,1231,1127,16728,-556,-1912,-736,-225,270
199497,2027,1243,1126,16892,-492,-1920,-752,37,290
199507,2027,1237,1126,16760,-444,-2112,-768,10,365
199517,2027,1213,1123,16736,-328,-1912,-736,-124,402
199527,2025,1244,1125,16724,-340,-2012,-752,-147,347
199537,2027,1245,1125,16664,-284,-1932,-736,-101,287
199547,2072,1241,1125,16716,-388,-2004,-768,-68,239
199557,2027,1240,1124,16760,-388,-1836,-752,-84,258
199567,2026,1256,1125,16880,-376,-1836,-720,-107,349
199577,2025,1237,1125,16668,-364,-2020,-720,-117,327
199587,2026,1253,1123,16776,-332,-1876,-768,-61,222
199597,2026,1245,1125,16784,-320,-1980,-752,51,192
199607,2025,1236,1124,16808,-204,-2028,-752,5,193
199617,2025,1231,1124,16760,-336,-1928,-752,-61,202
199627,2026,1227,1124,16756,-268,-1996,-736,-84,46
199637,2027,1235,1125,16720,-412,-2040,-720,-210,49
199647,2021,1237,1125,16760,-432,-1808,-720,-285,93
199657,2027,1224,1117,16688,-436,-1960,-768,-99,59
199667,2027,1221,1123,16744,-440,-1940,-736,28,147
199677,2025,1241,1123,16792,-456,-2108,-736,-120,176
199687,2026,1241,1123,16748,-512,-1712,-704,-99,93
199697,2026,1231,1124,16664,-560,-1760,-736,32,97
199707,2023,1222,1125,16692,-500,-2356,-704,1,-3
199717,2035,1229,1125,16776,-484,-1900,-736,3,26
199727,2027,1239,1125,16872,-504,-1988,-752,70,159
199737,2027,1241,1125,16792,-472,-2260,-736,87,149
199747,2026,1239,1130,16680,-404,-2036,-736,81,14
199757,2025,1227,1125,16776,-488,-1988,-720,-9,-47
199767,2026,1227,1125,16648,-664,-2124,-752,-114,-2
199777,2023,1235,1124,16776,-624,-2136,-736,-48,91
199787,2017,1224,1124,16696,-576,-2032,-752,197,75
199797,2027,1231,1124,16704,-564,-2120,-752,259,85
199807,2025,1235,1142,16780,-384,-2092,-768,242,98
199817,2025,1227,1126,16680,-268,-2236,-752,115,168
199827,2025,1233,1141,16736,-332,-2208,-768,-56,151
199837,2027,1243,1095,16692,-372,-2168,-736,-220,159
199847,2026,1237,1125,16728,-468,-2072,-752,-210,174
199857,2027,1229,1124,16740,-544,-2048,-736,-136,126
199867,2025,1241,1125,16772,-704,-2020,-704,-122,168
199877,2027,1239,1133,16772,-572,-2124,-752,-44,221
199887,2025,1215,1125,16792,-536,-2052,-736,118,205
199897,2027,1213,1088,16780,-520,-2124,-736,232,118
199907,2024,1213,1123,16848,-528,-2096,-752,132,108
199917,2026,1227,1125,16772,-484,-2020,-752,-60,140
199927,2025,1211,1123,16660,-520,-2132,-720,-22,94
199937,2021,1225,1123,16672,-544,-2220,-752,69,58
199947,2023,1229,1122,16776,-572,-2280,-736,-40,75
199957,2025,1211,1123,16740,-488,-2076,-752,87,164
199967,2026,1238,1123,16740,-520,-2268,-752,117,216
199977,2025,1239,1123,16760,-568,-2116,-736,23,212
199987,2023,1223,1125,16792,-676,-2204,-720,-64,88
199997,2025,1208,1123,16656,-712,-1992,-752,85,97
200007,2025,1207,1123,16740,-648,-2184,-736,158,131
200017,2023,1207,1123,16804,-704,-2172,-768,249,164
200027,2026,1205,1124,16664,-568,-2052,-768,273,209
200037,2024,1208,1123,16776,-580,-2148,-736,198,338
200047,2025,1209,1123,16712,-564,-2144,-736,0,106
200057,2025,1207,1123,16700,-568,-2240,-736,-70,178
200067,2023,1211,1124,16776,-476,-2284,-736,-5,167
200077,2025,1225,1123,16772,-608,-2228,-752,90,243
200087,2026,1225,1119,16720,-344,-2160,-736,129,310
200097,2026,1214,1123,16680,-316,-2072,-768,83,314
200107,2025,1212,1123,16644,-308,-2092,-752,-17,321
200117,2024,1228,1122,16676,-324,-1960,-784,-51,255
200127,2025,1225,1122,16716,-348,-1988,-768,-138,164
200137,2025,1223,1119,16660,-440,-2028,-752,-98,236
200147,2025,1213,1123,16788,-372,-2056,-752,0,283
200157,2024,1207,1122,16732,-420,-2224,-736,52,281
200167,2025,1212,1124,16720,-528,-2008,-752,72,238
200177,2024,1221,1119,16640,-432,-2288,-768,-32,258
200187,2025,1213,1123,16708,-468,-2108,-720,-118,226
200197,2025,1205,1122,16712,-544,-2148,-720,-123,257
200207,2025,1211,1119,16748,-548,-2020,-768,-92,298
200217,2025,1224,1123,16672,-416,-2060,-736,-49,289
200227,2023,1203,1117,16808,-432,-1996,-720,9,256
200237,2023,1210,1119,16768,-608,-2176,-768,-18,265
200247,2025,1215,1123,16760,-436,-2168,-768,-1,310
200257,2024,1224,1125,16740,-340,-2096,-768,79,303
200267,2023,1214,1123,16816,-304,-2096,-752,-53,271
200277,2024,1211,1123,16704,-436,-1996,-752,-107,266
200287,2025,1203,1118,16676,-456,-1984,-752,-64,277
200297,2028,1203,1117,16736,-324,-1984,-736,18,246
200307,2025,1208,1119,16776,-300,-2012,-720,19,286
200317,2023,1213,1119,16740,-316,-2148,-720,-83,331
200327,2025,1215,1118,16732,-312,-2156,-736,-201,267
200337,2026,1222,1121,16744,-236,-2020,-736,-135,290
200347,2024,1204,1117,16756,-304,-2032,-736,-74,300
200357,2023,1205,1118,16736,-392,-2152,-736,-190,275
200367,2026,1207,1121,16668,-444,-2084,-768,-152,211
200377,2025,1208,1123,16748,-468,-1988,-704,16,158
200387,2025,1198,1123,16848,-412,-1996,-736,48,202
200397,2025,1203,1119,16740,-480,-2196,-752,-11,253
200407,2025,1210,1119,16816,-580,-2232,-736,-109,286
200417,2025,1212,1119,16664,-520,-2156,-768,-147,255
200427,2025,1210,1118,16648,-508,-2144,-720,-75,181
200437,2025,1199,1118,16824,-488,-2124,-736,-49,-16
200447,2027,1206,1121,16788,-468,-2084,-752,-89,187
200457,2025,1209,1119,16816,-568,-2104,-752,-140,331
200467,2024,1209,1117,16804,-556,-1988,-752,-93,282
200477,2023,1209,1118,16800,-580,-1880,-720,17,246
200487,2023,1208,1117,16728,-568,-2236,-752,-106,234
200497,2025,1212,1122,16656,-636,-2220,-736,-197,209
200507,2025,1215,1121,16720,-680,-1844,-752,-127,271
200517,2027,1215,1110,16684,-616,-2116,-720,-8,302
200527,2025,1203,1130,16684,-580,-2092,-704,16,261
200537,2025,1203,1117,16664,-604,-1972,-736,39,292
200547,2025,1199,1123,16704,-660,-1956,-736,71,330
200557,2024,1195,1127,16652,-844,-2096,-736,58,316
200567,2025,1192,1123,16488,-1300,-1848,-768,-9,389
200577,2023,1179,1125,16384,-1660,-1644,-736,157,355
200587,2020,1158,1123,16248,-2132,-1676,-736,588,266
200597,2013,1164,1119,16484,-2512,-1592,-752,1128,32
200607,2025,1163,1124,16604,-2468,-1448,-720,1771,-167
200617,2025,1165,1123,16672,-2180,-1640,-736,2448,-94
200627,2023,1170,1123,16788,-1796,-1900,-752,3017,-28
200637,2023,1161,1123,16832,-1180,-1872,-720,3268,-40
200647,2053,1160,1117,16720,-544,-1804,-720,3187,62
200657,2024,1143,1118,16668,236,-2168,-720,2954,86
200667,2024,1133,1119,16624,688,-2648,-768,2327,17
200677,2023,1163,1119,16676,980,-2496,-736,1666,-115
200687,2024,1171,1117,16748,1232,-2432,-752,1508,-17
200697,2024,1181,1117,16628,1016,-3008,-736,879,232
200707,2023,1183,1119,16716,516,-3164,-736,-206,419
200717,2023,1193,1118,16488,-56,-2508,-752,-977,391
200727,2023,1195,1119,16572,-676,-2016,-736,-1137,455
200737,2025,1187,1118,16576,-1088,-1912,-736,-909,612
200747,2024,1177,1115,16488,-1500,-1988,-736,-615,589
200757,2023,1170,1116,16348,-2228,-2212,-736,-598,498
200767,2023,1150,1119,16408,-2720,-2184,-752,-741,361
200777,2023,1159,1117,16640,-3128,-2244,-752,-870,131
200787,2025,1133,1115,16728,-3276,-2288,-736,-973,21
200797,2024,1159,1119,16740,-3268,-2976,-720,-1274,-81
200807,2025,1199,1124,16820,-3324,-3080,-720,-1714,-218
200817,2023,1226,1125,16596,-3868,-3500,-768,-2229,-57
200827,2025,1275,1128,16676,-4384,-3108,-768,-2734,224
200837,2024,1211,1120,16896,-4992,-2700,-736,-2880,571
200847,2023,1227,1119,17120,-5400,-1816,-768,-3051,1316
200857,2023,1257,1121,17376,-4832,-712,-720,-2794,1878
200867,2019,805,1115,16688,-4360,388,-736,-2287,2534
200877,2021,1613,1139,17480,-2388,876,-736,-1251,2549
200887,2021,1358,1109,16784,-440,1688,-720,220,2181
200897,1998,1261,1108,16144,1652,292,-720,2615,2065
200907,2025,1227,1113,15112,3140,-788,-720,3829,1659
200917,2025,1207,1111,13928,4016,-2120,-720,3618,1348
200927,2031,1197,1118,13172,4332,-1648,-736,1704,1147
200937,2025,1191,1116,13032,5508,752,-752,663,833
200947,2024,1190,1125,13920,4488,-1400,-752,-1001,116
200957,2023,1190,1133,15088,1764,-3716,-768,-4558,-1623
200967,2031,1187,1122,17316,-1784,-3384,-736,-7995,-2934
200977,2021,1187,1113,18792,-4112,-1036,-736,-8906,-2893
200987,2019,1188,1080,18200,-4028,780,-704,-5894,-1431
200997,2023,1183,1080,15360,-1120,796,-768,-615,1485
201007,2025,1183,1113,12996,3952,196,-736,4299,3615
201017,2027,1181,1131,13652,5612,-4656,-736,6142,2071
201027,2024,1179,1143,14952,4532,-9752,-752,1840,-2604
201037,2024,1187,1122,16144,3408,-9488,-752,-5245,-5485
201047,2023,1183,1111,17300,3440,-5640,-736,-7983,-4296
201057,2023,1188,1099,17484,3132,-3476,-720,-5071,-801
201067,2023,1187,1097,17444,3312,-4248,-720,-265,2252
201077,2023,1230,1102,16576,5868,-2876,-768,2113,5444
201087,2023,1183,1123,15236,8076,-2864,-720,1716,7159
201097,2037,1187,1109,14648,8500,-5424,-704,-325,5348
201107,2024,1184,1127,13876,6952,-5664,-736,-4363,2599
201117,2023,1183,1123,11972,4708,-2064,-768,-7542,2196
201127,2027,1183,1099,15364,5112,1176,-768,-4275,911
201137,2025,1187,1113,16624,4904,652,-736,1034,-1237
201147,2022,1187,1110,16984,6796,752,-784,5301,-809
201157,2021,1183,1113,15980,8520,-668,-752,5897,1494
201167,2021,1187,1118,15724,9684,-2540,-784,2777,3208
201177,2025,1182,1124,15020,10260,-1428,-752,-1834,3974
201187,2025,1183,1119,14168,10312,-172,-736,-3509,2811
201197,2023,1181,1117,14336,9888,-488,-752,-2502,667
201207,2023,1183,1115,14336,8688,-1448,-784,-1408,-975
201217,2025,1183,1114,15128,8540,-1496,-736,-678,-777
201227,2021,1182,1110,16088,9040,-1596,-736,215,-321
201237,2019,1183,1111,16412,9484,-1580,-704,1035,616
201247,2023,1187,1113,14932,10464,-1056,-736,989,2609
201257,2025,1183,1127,14384,11132,-1384,-736,1082,3280
201267,2023,1182,1133,14436,11092,-2416,-704,648,2044
201277,2023,1183,1144,15192,11404,-1584,-736,-517,1372
201287,2021,1183,1139,15380,11016,-504,-752,-1191,2038
201297,2025,1183,1125,15296,10356,424,-752,-885,2911
201307,2025,1183,1132,14276,10176,1328,-768,437,3378
201317,2023,1183,1123,14316,9944,1332,-752,1912,3198
201327,2025,1161,1106,15108,10756,1496,-720,2971,2362
201337,2025,1180,1116,15512,11408,2176,-704,3586,2323
201347,2024,1181,1117,15120,11608,1880,-720,3651,3391
201357,2015,1181,1113,14808,11340,1968,-704,3137,4733
201367,2027,1183,1117,15380,11480,4304,-736,3796,5486
201377,2026,1180,1043,15984,10624,4972,-720,5287,5135
201387,2012,1183,1003,16640,11908,4608,-704,6631,4577
201397,2027,1181,1001,16960,16216,4960,-736,10067,4087
201407,2025,1182,973,15912,19096,1992,-752,13719,2491
201417,2009,1179,1099,15404,20728,516,-736,13778,-161
201427,1997,1177,1404,15896,23508,-164,-720,11435,-3160
201437,1980,1180,1356,17500,26196,-4108,-752,8152,-7512
201447,2022,1178,1131,19980,26072,-6804,-768,2115,-9884
201457,2057,1176,1172,24136,23040,-5076,-752,-4536,-9428
201467,2073,1173,1149,29372,20020,-8584,-752,-7246,-10902
201477,2043,1177,1160,32767,15716,-7292,-768,-8964,-14092
201487,2061,1177,1019,32767,12160,-4844,-736,-7876,-12584
201497,2055,1187,1005,32767,9140,-6136,-752,-6891,-8709
201507,2030,1183,991,32767,6116,-4208,-736,-5566,-2762
201517,2007,1192,877,32767,3644,-2312,-720,-4944,3344
201527,1966,1171,1005,27996,1760,-1396,-752,-3509,9101
201537,1934,1176,1289,18272,3516,-5608,-768,-2425,12076
201547,1996,1175,1246,8384,2752,-10692,-720,-8762,16747
201557,2039,1163,1011,3748,208,-10892,-752,-20911,22542
201567,2069,1189,920,1896,-5188,-7392,-736,-31519,26307
201577,2045,1318,935,3508,-13352,-7068,-736,-32768,20719
201587,2021,1657,1019,7412,-13948,-3724,-736,-30972,5756
201597,2039,1787,1128,524,-18896,1488,-736,-15961,-4561
201607,2023,1639,1191,11400,-18252,7684,-784,430,-6725
201617,2003,1209,1184,20492,-14648,9004,-768,3380,-10784
201627,1993,739,1256,10968,-8856,7396,-736,12065,-6267
201637,2031,521,1304,2348,-5220,-1656,-752,21011,-2113
201647,2035,659,1171,2140,-4140,-15832,-752,21725,4925
201657,2019,1231,1067,3752,-4580,-10764,-768,8624,12800
201667,2018,1311,1012,1060,-2556,-852,-736,1004,14978
201677,2019,1229,1049,-816,-1796,3388,-736,425,13952
201687,2013,981,1124,-1416,404,3548,-736,4481,10626
201697,2020,829,1136,-812,-1676,1432,-736,6057,8330
201707,2021,823,1129,-304,-3392,-1640,-768,1426,5348
201717,2021,915,1115,-380,-4176,-1144,-736,-5196,1411
201727,2028,1032,1110,-860,-3912,1148,-720,-8569,-2445
201737,2027,1141,1111,-380,-3104,2104,-752,-7002,-4446
201747,2029,1161,1107,-248,-1796,2448,-736,-1372,-4316
201757,2031,1059,1109,316,-196,1820,-752,5826,-2422
201767,2024,1175,1131,824,132,572,-752,11005,-89
201777,2023,1289,1144,1440,952,-1788,-736,12284,1104
201787,2017,1275,1173,2736,960,-2900,-752,9497,675
201797,2015,1374,1192,3124,224,-3364,-736,4403,-537
201807,2025,1127,1163,4424,-1020,-2804,-736,-1822,-2234
201817,2020,1126,1120,4292,-3012,-632,-720,-8290,-1223
201827,2018,1063,1116,4608,-4800,-532,-736,-13134,-1450
201837,2023,746,1115,4724,-5640,-1296,-768,-15044,-2265
201847,2015,436,1112,5212,-7364,-3464,-752,-14726,-3893
201857,2009,903,1170,7628,-12220,-5708,-784,-15477,-6551
201867,2030,2379,1075,19968,-16592,7176,-736,-14115,-8457
201877,1983,0,920,32767,-15456,28264,-784,-14011,-9688
201887,2200,59,1128,31356,-1184,10304,-752,12402,-18564
201897,2167,1843,189,-13496,-1148,-11236,-736,32767,-11389
201907,1965,0,649,-984,1524,-24376,-752,32767,10234
201917,1869,590,1869,32767,32767,8188,-768,32767,21010
201927,1933,839,2074,32767,32767,11100,-736,32767,-32768
201937,2003,925,2295,32767,28700,-23620,-752,-21047,-20786
201947,2059,955,1213,32767,10808,-11892,-752,-32768,-12071
201957,2003,987,536,32767,-2384,-4264,-752,-32768,-17363
201967,2073,988,141,32767,3252,29076,-704,-16629,-7548
201977,2079,1019,529,32767,1228,2080,-752,8278,11006
201987,2060,1003,615,23768,4052,3012,-752,15461,24467
201997,2061,1011,693,7872,9100,460,-784,21608,31524
202007,2039,1013,903,-9900,17804,840,-736,25924,24257
202017,2037,1011,1004,-15408,24856,4592,-768,28718,12877
202027,2003,1003,1149,-12304,6272,4596,-736,21483,14040
202037,2039,951,1235,-17892,32767,-19912,-768,5220,3908
202047,2040,1005,1205,-10836,31300,-9752,-736,-19557,-16210
202057,2068,1014,1092,8364,18696,-8668,-784,-26167,-25252
202067,2109,985,1123,29568,1288,-11288,-768,-31335,-29952
202077,2039,989,341,29564,-1200,-32768,-752,-32768,-32768
202087,2003,1000,1051,32767,-32768,23868,-752,-32768,-32768
202097,2021,1021,918,32767,-32124,-5804,-736,-32768,19311
202107,2030,1019,968,13564,-8964,5724,-800,32767,32767
202117,2070,1034,1069,10208,7612,15396,-768,32767,32767
202127,1963,1113,1139,3424,21732,-560,-736,32767,32767
202137,2008,1005,958,-2700,18680,-32768,-800,32767,32767
202147,2054,1048,1001,-32768,30492,-32768,-736,-3349,7689
202157,2025,1019,1144,796,16044,-30936,-736,-23228,-28625
202167,2037,1014,1093,17460,6124,-716,-720,-32768,-32768
202177,2038,1012,1031,11932,6372,-26824,-752,-32533,-30089
202187,2038,1017,1055,32767,2776,23404,-768,-24148,-32768
202197,2031,1019,1071,25960,-1776,8744,-784,-11280,-15868
202207,2031,1021,1084,27468,-1208,908,-768,3401,2292
202217,2037,1029,1067,23220,3204,8688,-736,16977,15703
202227,2041,1032,1007,17884,7044,6820,-752,20943,24020
202237,2029,1033,1059,13240,11432,1176,-768,20067,23474
202247,2035,1035,1065,8728,12748,-1368,-736,13891,15231
202257,2037,1033,1047,9044,13768,-2608,-784,5618,3911
202267,2035,1035,1037,9260,12896,-3920,-736,-2197,-6823
202277,2035,1033,1037,13476,11780,-2604,-752,-7174,-13087
202287,2037,1032,1047,16868,8268,-708,-784,-14000,-18020
202297,2035,1032,1056,18772,8968,2548,-768,-13782,-14916
202307,2037,1034,1053,19392,6956,2404,-752,-8802,-9959
202317,2037,1035,1042,19372,6412,440,-752,-1539,-4827
202327,2037,1036,1039,18344,6708,-1416,-800,4103,-623
202337,2037,1039,1047,16956,7388,-4248,-768,5762,1752
202347,2036,1039,1052,15564,8080,-4500,-752,4598,2345
202357,2032,1041,1049,14432,8856,-4928,-768,3048,1078
202367,2032,1041,1055,14216,9156,-5344,-784,1745,-1038
202377,2031,1037,1053,14984,8468,-5840,-752,530,-2846
202387,2031,1044,1051,15760,7560,-5356,-768,-996,-3591
202397,2031,1043,1051,16580,6092,-4688,-752,-2436,-2794
202407,2029,1045,1051,16788,4912,-3980,-752,-3205,-1022
202417,2028,1045,1051,16528,3816,-3352,-768,-3036,909
202427,2035,1046,1058,15176,2108,-2208,-736,-1893,2132
202437,2035,1048,1053,14908,716,-2588,-768,-609,2526
202447,2037,1048,1055,14748,-620,-3340,-736,-155,2367
202457,2032,1048,1047,13124,-1136,-1748,-768,897,526
202467,2025,1049,1051,14024,-860,-1748,-736,3014,-656
202477,2035,1049,1049,14584,-1128,-1404,-768,4306,-1110
202487,2035,1050,1050,14900,-1176,-1784,-784,4580,-795
202497,2036,1051,1054,15356,-456,-2184,-768,3955,-1009
202507,2032,1050,1047,15996,-704,-888,-768,4169,-790
202517,2027,1051,1062,16352,-2104,-1596,-752,3551,-20
202527,2029,1053,1059,15864,-1840,-620,-752,3077,1007
202537,2025,1053,1053,15696,-1988,-96,-768,3393,1882
202547,2035,1053,1049,14988,-2688,-2200,-752,3192,1803
202557,2035,1117,1051,14744,-2788,-3204,-768,2007,814
202567,2031,1059,1050,15016,-3400,-2132,-784,540,-54
202577,2031,1062,1047,15500,-4108,-1836,-784,-929,-705
202587,2031,1071,1043,15628,-4052,-1916,-768,-2048,-1451
202597,2031,1087,1048,15948,-4108,-2036,-768,-2314,-1917
202607,2031,1135,1049,16652,-3944,-1328,-784,-1897,-2308
202617,2031,1208,1049,17208,-3652,-608,-752,-1292,-2121
202627,2031,1247,1044,17244,-2952,-604,-752,-657,-1550
202637,2027,1196,1049,17088,-2652,-1484,-736,-484,-882
202647,2032,1124,1051,16800,-3500,-2388,-784,-1314,-879
202657,2030,1077,1053,16388,-4816,-2588,-752,-2595,-1524
202667,2037,997,1062,16116,-5776,-2584,-752,-3185,-2229
202677,2032,951,1071,16656,-6964,-4212,-768,-3400,-3186
202687,2029,904,1085,17356,-6872,-4548,-736,-2402,-4192
202697,2031,927,1087,17632,-5984,-4468,-768,100,-3639
202707,2029,999,1093,17552,-4668,-4700,-800,2654,-886
202717,2028,999,1087,17048,-3360,-5564,-784,3475,1965
202727,2027,1054,1084,16312,-2092,-5532,-784,2575,3741
202737,2031,1074,1076,15736,-832,-4800,-736,1440,3958
202747,2028,1050,1079,15632,-192,-3992,-752,223,2917
202757,2030,1051,1071,15864,-16,-3044,-752,-1098,1573
202767,2011,1035,1069,16436,-508,-2188,-768,-2650,666
202777,2031,1031,1069,16760,-1480,-1636,-752,-4160,427
202787,2029,1049,1067,16680,-2724,-1352,-752,-4924,447
202797,2029,1032,1067,16448,-3264,-1036,-768,-4203,274
202807,2029,997,1069,16528,-3620,-1128,-736,-2180,-224
202817,2028,1007,1070,16692,-3248,-1172,-736,-183,-490
202827,2031,1011,1067,16928,-2268,-1816,-736,1346,-142
202837,2029,1031,1064,16888,-1248,-2948,-752,1701,437
202847,2028,1061,1066,16664,-476,-3456,-768,1180,943
202857,2031,1107,1063,16460,-120,-3404,-768,439,1069
202867,2029,1148,1060,16420,-132,-3136,-752,-115,940
202877,2029,1141,1061,16556,-228,-3128,-752,-370,580
202887,2029,1127,1063,16724,-740,-2828,-768,-448,591
202897,2029,1145,1062,16844,-880,-2460,-784,-278,744
202907,2067,1171,1063,16896,-1008,-1924,-768,331,914
202917,2029,1117,1063,16824,-1088,-1592,-752,1064,941
202927,2027,1055,1064,16628,-1176,-1880,-784,1097,993
202937,2028,1051,1068,16508,-1200,-2084,-736,708,843
202947,2029,1017,1069,16332,-1168,-2028,-768,437,548
202957,2029,999,1077,16552,-1152,-2704,-720,317,140
202967,2028,1055,1071,16620,-1004,-2652,-768,489,-262
202977,2041,1095,1067,16952,-388,-2272,-768,910,126
202987,2029,1096,1065,16936,360,-2740,-720,1287,850
202997,2026,1080,1069,16988,632,-3200,-768,794,1273
203007,2028,1127,1066,16652,532,-3120,-752,-562,1293
203017,2028,1119,1067,16604,236,-2752,-720,-1998,1058
203027,2027,1113,1067,16352,-212,-2624,-768,-2770,558
203037,2011,1149,1071,16532,-880,-2164,-752,-2656,129
203047,2030,1131,1068,16820,-1328,-1568,-784,-1799,188
203057,2029,1067,1069,17012,-1276,-1448,-736,-541,587
203067,2029,1023,1068,17008,-880,-1564,-736,695,999
203077,2029,1050,1069,16828,-376,-1540,-736,1352,1262
203087,2027,1036,1067,16536,-164,-1676,-736,1371,1270
203097,2029,1047,1065,16388,76,-2240,-768,714,903
203107,2027,1021,1068,16348,92,-2188,-736,104,438
203117,2027,1087,1066,16536,-52,-1728,-768,-82,-96
203127,2026,1075,1064,16980,236,-1672,-752,101,-212
203137,2027,1065,1067,16992,256,-1936,-736,296,106
203147,2013,1063,1067,16976,64,-2172,-704,134,517
203157,2027,1085,1069,16716,12,-2092,-752,-23,704
203167,2027,1093,1069,16476,-124,-2456,-720,-162,525
203177,2023,1103,1069,16388,-252,-2432,-736,-450,144
203187,2027,1098,1070,16700,-248,-2240,-768,-717,-68
203197,2028,1097,1071,16728,-600,-1836,-752,-673,76
203207,2025,1096,1075,17000,-512,-1896,-752,-462,330
203217,2029,1083,1069,16952,-436,-2120,-752,-161,497
203227,2025,1097,1069,16840,-504,-2048,-768,52,497
203237,2025,1085,1068,16704,-444,-1764,-768,94,449
203247,2027,1095,1067,16588,-240,-2212,-768,1,245
203257,2027,1111,1069,16696,-364,-1948,-736,-92,4
203267,2023,1124,1069,16864,-252,-1976,-768,-264,48
203277,2028,1111,1071,16732,-280,-2064,-752,-212,120
203287,2028,1108,1068,16824,-260,-1812,-736,-109,259
203297,2027,1122,1071,16828,-148,-2068,-752,94,79
203307,2025,1114,1071,16836,-168,-2280,-736,40,197
203317,2028,1115,1085,16716,-552,-2120,-736,-352,273
203327,2027,1098,1067,16604,-596,-2136,-752,-642,273
203337,2029,1061,1070,16480,-748,-2196,-752,-578,92
203347,2027,1078,1075,16612,-1076,-1936,-768,-451,-123
203357,2027,1081,1075,16712,-1376,-1804,-720,-264,-179
203367,2025,1069,1070,16732,-1508,-2104,-752,-155,-142
203377,2027,1076,1075,16644,-1528,-2228,-736,57,-77
203387,2026,1091,1071,16516,-1456,-2136,-736,505,17
203397,2026,1092,1072,16604,-1428,-2248,-720,691,118
203407,2025,1097,1071,16648,-1104,-2512,-736,612,148
203417,2024,1085,1078,16680,-884,-2312,-736,543,175
203427,2021,1100,1077,16792,-644,-2028,-768,504,149
203437,2027,1086,1077,16760,-760,-2460,-736,323,155
203447,2026,1096,1076,16744,-608,-2432,-720,73,178
203457,2027,1109,1071,16680,-692,-2116,-752,331,297
203467,2026,1095,1071,16808,-312,-2040,-800,620,304
203477,2027,1118,1075,16868,-224,-2172,-752,734,231
203487,2027,1151,1078,16744,-124,-2024,-752,703,157
203497,2025,1123,1076,16700,192,-1896,-736,792,72
203507,2025,1085,1075,16692,136,-2228,-704,618,-54
203517,2025,1087,1075,16668,-168,-2480,-704,33,27
203527,2025,1085,1075,16632,-312,-2212,-736,-380,93
203537,2029,1118,1075,16644,-488,-2084,-768,-121,-50
203547,2027,1127,1076,16700,-724,-2312,-768,418,-212
203557,2025,1099,1075,16992,-568,-2056,-768,855,-125
203567,2028,1064,1072,16836,-340,-2256,-720,1010,134
203577,2026,1079,1075,16816,-312,-2288,-704,851,302
203587,2023,1079,1074,16636,-548,-2240,-736,328,425
203597,2027,1083,1076,16404,-716,-2440,-752,-37,234
203607,2025,1093,1076,16416,-716,-2300,-736,34,-133
203617,2028,1102,1077,16840,-944,-2072,-736,277,-292
203627,2027,1096,1076,16844,-872,-2236,-784,409,-54
203637,2025,1124,1080,16788,-680,-2248,-752,658,365
203647,2024,1087,1078,16688,-516,-2420,-720,688,498
203657,2026,1113,1079,16608,-668,-2584,-752,264,482
203667,2025,1107,1075,16544,-768,-2420,-736,-387,380
203677,2025,1107,1074,16468,-888,-2104,-752,-501,234
203687,2024,1109,1077,16524,-848,-2240,-720,-304,174
203697,2025,1115,1078,16652,-888,-2300,-768,-21,50
203707,2025,1106,1077,16988,-980,-1984,-768,93,323
203717,2027,1115,1077,16792,-772,-2048,-720,260,469
203727,2027,1095,1079,16640,-492,-2176,-704,615,425
203737,2023,1123,1075,16752,-368,-2292,-736,868,294
203747,2026,1097,1077,16800,-16,-2336,-720,822,285
203757,2025,1107,1081,17020,252,-2344,-752,570,362
203767,2024,1111,1081,16884,408,-2132,-720,375,448
203777,2025,1111,1079,16700,192,-2104,-720,59,526
203787,2027,1102,1077,16400,-68,-2356,-736,-328,470
203797,2025,1112,1080,16460,-344,-2176,-784,-496,161
203807,2025,1099,1077,16576,-580,-2040,-720,-465,16
203817,2026,1087,1072,16732,-648,-1856,-736,-310,-32
203827,2025,1099,1078,16828,-284,-1664,-768,361,46
203837,2025,1097,1079,17088,-68,-2012,-736,726,260
203847,2024,1083,1078,16852,172,-2116,-736,302,455
203857,2021,1079,1079,16768,-64,-2180,-736,-221,384
203867,2025,1095,1077,16452,-188,-2212,-704,-389,-31
203877,2025,1103,1079,16616,-232,-2228,-736,-251,-323
203887,2024,1085,1079,16748,-232,-2176,-720,-101,-187
203897,2024,1099,1081,16892,-212,-2228,-736,-226,195
203907,2025,1108,1081,16520,-512,-2336,-736,-442,507
203917,2027,1106,1080,16576,-660,-2116,-752,-444,403
203927,2024,1099,1080,16540,-744,-2092,-752,-280,128
203937,2024,1080,1078,16720,-644,-2252,-736,-259,-4
203947,2013,1111,1079,16876,-720,-2228,-752,-369,153
203957,2023,1143,1078,16824,-640,-2024,-752,-369,304
203967,2025,1139,1081,16616,-720,-2080,-704,-81,211
203977,2025,1144,1080,16844,-452,-1668,-736,452,-29
203987,2025,1145,1081,16700,-232,-1964,-736,774,45
203997,2025,1147,1081,16864,12,-2444,-768,449,235
204007,2027,1143,1081,16520,4,-2416,-736,-3,345
204017,2025,1129,1082,16536,-332,-2416,-736,-467,324
204027,2024,1115,1078,16500,-532,-2652,-736,-745,119
204037,2024,1111,1080,16584,-748,-2148,-752,-620,-32
204047,2026,1107,1079,16756,-868,-2080,-736,-371,125
204057,2025,1110,1081,16816,-780,-2244,-736,-109,416
204067,2025,1115,1023,16644,-748,-2156,-720,62,524
204077,2014,1111,1079,16712,-684,-2172,-720,148,422
204087,2025,1116,1080,16720,-460,-2420,-736,29,256
204097,2019,1119,1079,16664,-568,-2292,-704,-310,150
204107,2024,1100,1079,16804,-652,-2132,-768,-474,101
204117,2023,1097,1078,16844,-728,-1900,-768,-383,147
204127,2024,1115,1079,16800,-740,-2228,-736,-110,199
204137,2021,1107,1080,16748,-512,-2416,-736,135,262
204147,2024,1113,1083,16632,-416,-2096,-736,95,384
204157,2023,1109,1079,16636,-564,-2268,-752,-180,468
204167,2023,1113,1109,16596,-600,-2296,-704,-397,390
204177,2023,1119,1081,16624,-652,-2072,-736,-405,208
204187,2025,1119,1080,16708,-848,-2028,-752,-281,75
204197,2035,1115,1081,16888,-800,-2008,-752,-91,158
204207,2024,1123,1081,16780,-652,-2096,-720,112,273
204217,2024,1124,1081,16696,-792,-2128,-736,205,336
204227,2053,1117,1080,16612,-656,-2348,-752,161,262
204237,2023,1117,1080,16728,-532,-2416,-720,86,147
204247,2024,1128,1081,16820,-392,-2320,-720,-148,49
204257,2024,1123,1081,16800,-472,-2196,-704,-264,129
204267,2023,1113,1081,16744,-664,-2128,-720,-273,318
204277,2024,1114,1079,16616,-696,-2420,-752,-246,345
204287,2013,1127,1073,16672,-604,-2200,-704,-158,222
204297,2023,1143,1084,16672,-756,-2344,-736,-6,162
204307,2023,1140,1079,16760,-708,-2000,-752,68,128
204317,2023,1118,1080,16720,-656,-2012,-736,98,245
204327,2023,1105,1083,16680,-640,-2144,-752,83,259
204337,2023,1110,1081,16784,-624,-2192,-768,15,274
204347,2023,1117,1083,16632,-604,-2100,-768,-87,265
204357,2023,1129,1081,16488,-792,-2340,-720,-207,178
204367,2023,1123,1082,16776,-788,-2316,-720,-308,102
204377,2025,1115,1083,16740,-760,-1952,-736,-156,127
204387,2023,1118,1083,16728,-716,-2280,-752,63,263
204397,2023,1128,1082,16832,-596,-2440,-720,44,336
204407,2025,1122,1083,16752,-532,-1992,-736,-54,368
204417,2024,1109,1083,16456,-660,-2140,-736,-127,284
204427,2023,1113,1083,16688,-672,-2380,-736,-234,125
204437,2025,1131,1080,16632,-816,-2188,-736,-337,95
204447,2023,1133,1080,16768,-896,-2276,-704,-313,195
204457,2019,1135,1081,16748,-888,-2204,-768,-202,266
204467,2025,1127,1111,16676,-768,-2020,-736,-6,293
204477,2022,1107,1081,16680,-632,-2172,-720,103,331
204487,2025,1117,1081,16684,-624,-2176,-736,-98,251
204497,2023,1166,1083,16672,-740,-2020,-736,-170,170
204507,2024,1115,1083,16800,-736,-2032,-752,-166,87
204517,2025,1119,1081,16824,-740,-2144,-768,-69,79
204527,2023,1117,1083,16840,-716,-2040,-704,41,223
204537,2023,1123,1081,16696,-764,-2240,-720,-16,258
204547,2025,1119,1081,16760,-620,-2284,-752,-84,271
204557,2023,1133,1083,16808,-532,-2304,-752,-18,271
204567,2024,1113,1082,16664,-672,-2268,-752,-153,323
204577,2023,1132,1083,16584,-648,-2132,-736,-276,311
204587,2024,1140,1081,16640,-748,-2180,-736,-205,223
204597,2023,1141,1081,16864,-752,-1904,-752,-80,191
204607,2023,1132,1083,16680,-756,-1996,-736,-80,291
204617,2023,1133,1071,16692,-736,-2196,-736,-151,286
204627,2023,1126,1084,16560,-728,-2008,-752,49,199
204637,2021,1127,1081,16728,-644,-2180,-736,130,174
204647,2023,1127,1083,16760,-616,-2272,-720,9,202
204657,2006,1131,1087,16700,-616,-2164,-720,-114,263
204667,2023,1142,1083,16844,-652,-2212,-736,-140,271
204677,2024,1133,1083,16784,-744,-1952,-752,-165,205
204687,2025,1113,1055,16676,-788,-2004,-752,-131,164
204697,2023,1100,1081,16680,-832,-1936,-736,-126,186
204707,2021,1100,1083,16740,-832,-2092,-752,45,181
204717,2015,1101,1081,16800,-544,-2080,-752,273,219
204727,2023,1133,1082,16664,-700,-2208,-736,184,264
204737,2021,1131,1083,16664,-580,-2192,-736,-19,237
204747,2022,1132,1084,16684,-536,-2132,-752,-57,187
204757,2023,1133,1083,16724,-548,-2172,-768,-149,89
204767,2024,1126,1083,16768,-660,-2268,-736,-205,88
204777,2022,1129,1083,16660,-632,-2260,-752,-51,159
204787,2023,1133,1081,16772,-608,-2252,-736,58,177
204797,2023,1131,1083,16664,-576,-2264,-720,17,233
204807,2023,1133,1081,16660,-524,-2156,-736,-134,218
204817,2025,1129,1081,16680,-716,-2020,-768,-152,142
204827,2021,1127,1084,16748,-808,-1820,-752,32,108
204837,2023,1131,1084,16668,-708,-2004,-752,150,61
204847,2022,1129,1083,16816,-656,-2184,-736,128,6
204857,2023,1132,1083,16760,-700,-2180,-720,122,100
204867,2021,1126,1083,16720,-668,-2216,-752,140,176
204877,2023,1124,1083,16644,-688,-2244,-704,147,150
204887,2023,1125,1083,16692,-588,-2344,-720,11,144
204897,2023,1129,1083,16624,-628,-2268,-736,-106,174
204907,2023,1113,1083,16768,-608,-2256,-768,-132,185
204917,2023,1132,1083,16652,-524,-2124,-752,24,63
204927,2023,1134,1085,16712,-648,-2172,-736,100,259
204937,2021,1139,1083,16740,-452,-2220,-704,53,243
204947,2023,1134,1084,16708,-564,-2188,-736,19,187
204957,2022,1130,1085,16644,-512,-2228,-720,-59,181
204967,2021,1134,1081,16744,-636,-2272,-720,-108,153
204977,2024,1133,1083,16820,-656,-2096,-720,-79,132
204987,2022,1129,1082,16764,-568,-2108,-752,-25,162
204997,2039,1131,1082,16664,-640,-2192,-752,53,242
205007,2023,1127,1083,16644,-428,-2324,-720,181,248
205017,2023,1128,1084,16668,-520,-2212,-736,116,223
205027,2023,1128,1083,16608,-480,-2272,-688,-90,270
205037,2023,1133,1081,16628,-668,-2208,-720,-336,224
205047,2023,1139,1081,16604,-652,-2124,-704,-307,150
205057,2023,1134,1083,16732,-732,-2184,-768,-79,86
205067,2025,1132,1083,16832,-744,-2052,-736,152,128
205077,2031,1128,1083,16820,-524,-2076,-768,167,208
205087,2023,1133,1083,16812,-480,-2108,-736,146,320
205097,2023,1132,1085,16660,-356,-2208,-752,93,314
205107,2023,1140,1083,16520,-524,-2336,-736,-140,145
205117,2020,1143,1081,16600,-680,-2272,-752,-431,65
205127,2021,1157,1083,16724,-732,-2228,-736,-390,121
205137,2024,1141,1084,16716,-840,-2084,-736,-45,191
205147,2023,1140,1085,16720,-792,-2028,-752,179,292
205157,2023,1133,1083,16696,-540,-2252,-720,213,404
205167,2023,1134,1083,16596,-444,-2124,-736,207,393
205177,2023,1119,1085,16612,-348,-2088,-752,147,342
205187,2023,1125,1085,16724,-340,-2364,-736,-42,258
205197,2025,1129,1098,16636,-540,-2324,-768,-315,232
205207,2023,1125,1083,16796,-560,-2120,-720,-347,237
205217,2023,1133,1083,16776,-568,-2244,-704,-192,267
205227,2023,1131,1083,16736,-688,-2064,-736,-65,355
205237,2022,1133,1085,16720,-440,-2072,-752,35,406
205247,2021,1115,1085,16752,-492,-2204,-736,107,358
205257,2022,1123,1084,16680,-420,-2168,-768,-96,311
205267,2021,1125,1083,16680,-464,-1940,-720,-330,320
205277,2022,1114,1084,16772,-448,-2136,-720,-450,224
205287,2023,1113,1083,16676,-548,-2124,-752,-422,179
205297,2023,1125,1083,16720,-580,-1984,-752,-286,328
205307,2022,1133,1085,16756,-568,-2224,-736,-232,429
205317,2023,1145,1083,16724,-624,-2144,-752,-209,472
205327,2023,1145,1084,16704,-528,-2264,-752,-63,335
205337,2023,1145,1081,16736,-440,-2300,-768,-144,308
205347,2023,1129,1084,16712,-440,-2080,-752,-293,316
205357,2023,1138,1084,16692,-516,-2096,-784,-330,332
205367,2023,1135,1085,16700,-640,-2160,-736,-305,369
205377,2024,1133,1083,16628,-700,-2112,-736,-271,398
205387,2045,1139,1084,16616,-736,-2048,-720,-250,377
205397,2023,1127,1083,16608,-820,-2116,-736,-246,359
205407,2029,1135,1084,16800,-788,-2060,-752,-122,337
205417,2011,1135,1085,16740,-612,-2232,-736,37,276
205427,2023,1133,1085,16720,-724,-2304,-736,-15,289
205437,2023,1135,1085,16708,-788,-2196,-752,-144,295
205447,2021,1134,1083,16624,-1004,-2112,-720,-80,246
205457,2023,1117,1084,16604,-976,-1964,-736,100,256
205467,2025,1123,1083,16468,-1172,-1984,-752,345,278
205477,2023,1111,1087,16480,-1320,-2152,-752,583,282
205487,2022,1112,1087,16880,-1488,-2208,-736,616,-40
205497,2014,1139,1081,17168,-1124,-1800,-736,842,-122
205507,2022,1147,1081,17212,-620,-1680,-736,1107,399
205517,2023,1130,1085,17056,-520,-1968,-704,836,965
205527,2023,1128,1086,16480,-524,-2060,-736,187,1105
205537,2023,1133,1087,16256,-732,-1880,-768,-189,836
205547,2023,1132,1084,16212,-704,-1836,-736,193,161
205557,2023,1142,1085,16476,-108,-1552,-752,1016,-374
205567,2022,1135,1087,16968,340,-1980,-720,1231,-257
205577,2023,1124,1086,17036,596,-2328,-736,607,134
205587,2021,1129,1093,16848,524,-2324,-752,-97,302
205597,2023,1125,1093,16380,8,-2128,-752,-514,322
205607,2024,1116,1091,16004,-476,-2188,-736,-658,142
205617,2024,1122,1068,16104,-1052,-2092,-752,-587,-116
205627,2011,1145,1091,16296,-1372,-1904,-736,-412,-234
205637,2023,1139,1087,16548,-1884,-1696,-720,-296,-117
205647,2023,1135,1095,16784,-2316,-1288,-752,-272,16
205657,2023,1126,1086,16788,-2592,-1392,-768,-137,176
205667,2022,1085,1087,16460,-2992,-1764,-736,-224,131
205677,2025,1008,1095,16280,-3948,-2188,-736,-533,-85
205687,2023,991,1093,16120,-5204,-2340,-736,-476,-522
205697,2023,1035,1087,16236,-6388,-2876,-736,-934,-799
205707,2023,1142,1084,16388,-7240,-2668,-720,-281,-1077
205717,2023,1085,1086,16652,-8192,-3160,-752,505,-998
205727,2021,1082,1087,16864,-8672,-3068,-720,1066,-533
205737,2015,1237,1085,16820,-9300,-3748,-752,684,-646
205747,2019,1303,1083,17428,-9384,-3208,-736,-404,-397
205757,2021,1391,1086,17596,-8532,-1576,-752,-1469,726
205767,2012,1196,1076,17968,-6272,-340,-720,-1113,2241
205777,2019,935,1075,16188,-3460,316,-736,3,3304
205787,2021,1618,1080,15296,-148,-648,-736,1324,4134
205797,2021,1373,1082,14112,1384,-3492,-736,2823,3300
205807,2020,1241,1085,13656,1088,-5104,-736,343,1754
205817,2024,1193,1070,12320,1936,-244,-720,-2755,2104
205827,2023,1163,1079,12432,5264,6340,-736,-2249,4460
205837,2021,1150,1100,14760,8108,4452,-736,1431,3726
205847,2025,1157,1105,16588,7544,-2924,-752,3508,-2926
205857,2026,1157,1101,16624,3048,-8884,-720,-596,-7699
205867,2011,1147,1087,16480,-496,-7172,-736,-8352,-6302
205877,2019,1143,1053,15140,-880,-8,-704,-10343,-1002
205887,2018,1147,1030,15972,612,16,-736,-3218,2536
205897,2024,1123,1063,17404,2016,-5400,-768,5934,-439
205907,2023,1150,1066,17704,2948,-9616,-768,6938,-3343
205917,2015,1149,1084,15684,3468,-9800,-736,608,-936
205927,2021,1147,1097,14144,4220,-6616,-768,-8494,5630
205937,2025,1148,1091,13860,5488,-2632,-752,-9340,7753
205947,2023,1151,1091,14600,7292,-1568,-768,-1898,5014
205957,2018,1151,1091,15720,6296,-1720,-736,4514,1137
205967,2021,1149,1076,16864,5348,-2472,-752,2769,-619
205977,2019,1147,1086,17284,5992,-1332,-768,-3104,1211
205987,2021,1149,1097,14712,6352,1064,-736,-6121,4630
205997,2023,1147,1095,14472,6376,616,-704,-1850,3584
206007,2023,1148,1093,15652,6068,-1744,-736,3061,-31
206017,2023,1151,1086,16608,7412,-2944,-736,3916,-1948
206027,2019,1149,1081,15836,8144,-2836,-752,719,-232
206037,2020,1148,1078,15252,10216,-1332,-736,-2341,3624
206047,2020,1151,1095,13744,10060,-600,-768,-3310,5564
206057,2020,1171,1091,13664,8984,-620,-752,-2604,4038
206067,2024,1157,1085,14052,8052,-156,-784,-1456,887
206077,2022,1156,1084,15348,7972,-1196,-768,-746,-2377
206087,2021,1149,1085,16552,7144,-2280,-752,-1632,-3272
206097,2019,1149,1097,16132,6240,-788,-720,-2475,-899
206107,2013,1149,1083,15828,7016,2120,-768,-310,2334
206117,2015,1151,1081,15140,9172,944,-784,4758,3376
206127,2019,1151,1093,14580,11108,-2144,-768,6270,2124
206137,2021,1151,1097,15128,11464,-3176,-736,2620,971
206147,2020,1149,1117,15124,11976,-3404,-752,-2006,1217
206157,2023,1150,1112,14748,10824,-1072,-736,-3635,1954
206167,2024,1149,1092,14820,9704,-612,-736,-1873,2406
206177,2023,1150,1097,15492,9700,-412,-752,1099,2138
206187,2021,1150,1085,16488,10404,-1960,-752,3153,1944
206197,2023,1150,1069,15796,10900,-1920,-768,3794,2444
206207,2019,1149,1083,15820,12488,572,-784,4487,4267
206217,2021,1151,1095,16088,13524,204,-736,5190,5630
206227,2021,1149,1095,15324,12772,-928,-768,5022,6188
206237,2019,1149,1037,15260,11472,524,-784,4121,6398
206247,2023,1156,1036,15744,12508,2912,-736,6679,5538
206257,2014,1157,1145,16312,13020,4904,-768,11620,3885
206267,1997,1151,1077,17792,15088,5296,-752,13722,3378
206277,2003,1149,1183,18308,17920,4024,-736,14813,1630
206287,1981,1147,1126,18180,21804,2100,-768,14581,-1379
206297,2023,1138,1067,20084,26040,-52,-752,14209,-4904
206307,2022,1147,1127,21184,26408,236,-752,11010,-6285
206317,2069,1142,1095,25848,27104,-2920,-768,6553,-7513
206327,2091,1147,1099,32767,24804,-7576,-720,3180,-12695
206337,2020,1150,1051,32767,18660,-8024,-736,-3010,-19764
206347,2038,1151,983,32767,12720,-3448,-768,-10854,-17669
206357,2036,1157,920,32767,7996,-2688,-752,-12541,-9098
206367,1997,1167,919,32767,4536,-416,-768,-7552,2934
206377,1956,1148,1055,28488,4356,-1108,-736,1038,10270
206387,1981,1141,1238,17532,6624,-5476,-720,8061,12758
206397,2013,1144,1075,9072,6176,-12992,-736,2256,16854
206407,2069,1051,953,3928,2652,-12088,-752,-12633,23617
206417,2063,1301,949,1652,-6532,-7880,-752,-29844,28142
206427,2029,1379,971,4412,-14028,-5328,-768,-32768,20814
206437,2008,1657,1095,8892,-12232,-4820,-752,-32768,5818
206447,2029,1835,1156,3544,-15528,6724,-720,-22964,-3866
206457,2023,1646,1142,11676,-16636,1276,-736,-6263,-10351
206467,1981,1191,1157,15384,-19972,2540,-768,-4623,-12880
206477,2021,687,1223,8172,-8424,8168,-736,2461,-9361
206487,2026,319,1215,2668,-4456,-4268,-736,15084,-4714
206497,2019,619,1179,3764,-4028,-11704,-752,16636,-1076
206507,2010,1115,1115,5272,-6568,-17160,-752,1784,5729
206517,2019,1319,1039,1648,-7940,-9968,-736,-12180,10017
206527,2024,1367,1019,-1432,-8604,3980,-784,-14615,13392
206537,2011,1395,1084,-2680,-7648,6752,-752,-5895,13130
206547,2003,1117,1103,-576,-5468,2008,-736,6023,8604
206557,2009,901,1097,-1160,-8556,4976,-736,12119,6194
206567,2022,892,1079,-2312,-9732,-5520,-768,11554,1851
206577,2031,1081,1065,312,-7804,-5740,-736,4846,798
206587,2030,1131,1065,324,-6944,1580,-752,-922,488
206597,2023,1135,1081,1496,-3780,2968,-768,-1969,319
206607,2023,1233,1091,1416,-724,3968,-768,3089,2095
206617,2024,1165,1094,1160,672,3888,-752,9147,3366
206627,2027,1139,1087,1324,1752,2496,-720,12703,5600
206637,2027,1081,1099,1208,2420,-856,-736,12395,6388
206647,2021,1059,1107,1740,2220,-2764,-752,8915,4928
206657,2022,676,1101,2664,1144,-2588,-720,2905,2619
206667,2022,415,1109,2284,-156,16,-736,-3491,213
206677,2028,859,1093,1460,-476,1968,-752,-7613,-1259
206687,2010,1669,1084,1272,-40,3596,-768,-8760,-1176
206697,2003,1705,1081,1776,-152,3124,-768,-10227,869
206707,2027,1596,1083,1296,1000,-300,-752,-10628,-502
206717,2007,1437,1083,3104,3224,-1172,-768,-5770,-5184
206727,2040,2245,1118,8268,3408,-4400,-768,-1832,-7888
206737,2015,1009,1095,22144,360,-6040,-784,-5403,-10292
206747,2092,39,1060,32767,4352,-2780,-752,-21615,-30858
206757,2155,1963,1097,20148,6988,-3096,-752,-11752,-32768
206767,2013,1597,1006,17132,2096,-9316,-768,7731,-25627
206777,1868,1450,1019,25808,6056,1304,-784,6965,-5904
206787,1995,1383,1093,24680,3948,-16248,-752,7440,-1214
206797,1980,1337,1061,22092,6012,-1444,-752,-11329,5095
206807,1937,1327,973,29368,23256,16044,-800,-22009,18845
206817,2208,1353,1045,24388,25784,-6352,-800,2544,3992
206827,2072,1355,1034,32767,7520,-32768,-768,18339,-32768
206837,2066,1307,1173,32767,-25960,-32768,-752,-10881,-32768
206847,1930,1307,1321,32767,-2328,4692,-752,-32768,-32768
206857,1999,1333,819,32767,3444,17296,-784,-8243,12297
206867,2055,1340,853,32767,14552,14136,-768,32767,32767
206877,2044,1338,1235,8940,11072,-100,-784,32767,32767
206887,2043,1336,1170,-12772,16072,19332,-784,32767,32767
206897,2031,1322,1092,-29072,28780,-21536,-768,32767,32767
206907,2008,1337,872,820,32767,32767,-768,16507,32767
206917,1997,1341,1277,-32768,32767,-32768,-784,-10709,-11433
206927,2020,1302,1145,13544,18280,-32768,-768,-19798,-32768
206937,1999,1295,1272,32767,-17480,-6260,-784,-32768,-32768
206947,2063,1311,1063,-8108,128,17812,-768,-32768,-32768
206957,2003,1319,969,32767,-2556,29736,-768,-32768,-32768
206967,2004,1317,1060,32004,-6292,-4764,-752,11872,9065
206977,2028,1303,1086,27888,-2964,1756,-784,32767,32767
206987,2024,1319,1095,26572,7708,4268,-768,32767,32767
206997,2020,1320,1059,19708,16680,-5172,-768,32767,32767
207007,2011,1319,1076,4612,17428,-10492,-768,31308,32767
207017,2015,1309,1087,-1416,16480,-18828,-768,12225,13850
207027,2019,1311,1119,14588,19560,11764,-752,-2262,152
207037,2024,1335,1113,6492,22044,-11584,-736,-12433,-13997
207047,2013,1292,1110,13740,13700,-2272,-800,-19896,-21948
207057,2018,1325,1098,14876,16396,-8172,-784,-22628,-26577
207067,2021,1301,1093,13576,12288,440,-768,-25384,-30777
207077,2022,1299,1082,22488,7424,10264,-784,-20076,-23520
207087,2019,1301,1087,22896,13048,2048,-816,-5168,-10907
207097,2021,1300,1086,21588,8584,2880,-768,7320,1638
207107,2026,1302,1081,20060,9768,584,-800,14308,10408
207117,2023,1301,1085,17184,10800,-1468,-784,14385,13660
207127,2022,1301,1082,13808,12024,-2956,-768,12089,12599
207137,2025,1299,1092,12236,11636,-4568,-768,8105,8082
207147,2019,1298,1093,11264,10756,-4736,-752,3006,1732
207157,2025,1297,1093,12244,9840,-3304,-784,-1607,-3348
207167,2019,1295,1087,13616,7044,-2664,-784,-4290,-5852
207177,2020,1292,1043,15092,5780,-4544,-784,-7205,-7089
207187,2011,1292,1081,15200,3836,-3904,-800,-8545,-6855
207197,2021,1291,1085,15572,1400,-3164,-768,-9272,-4320
207207,2020,1291,1086,15388,-264,-804,-784,-7765,-1574
207217,2015,1292,1083,15000,-204,-464,-768,-4191,357
207227,2020,1292,1082,14316,-1944,-3788,-800,-1189,1068
207237,2024,1291,1091,13132,-2756,-4056,-784,-94,307
207247,2025,1291,1074,13052,-2404,-3852,-768,1069,-681
207257,2017,1298,1075,13496,-3072,-4428,-784,1495,-1663
207267,2020,1291,1054,13932,-2912,-3136,-816,2521,-2372
207277,2015,1293,1059,14168,-2500,-1476,-800,4447,-1646
207287,2019,1332,1077,14568,-2764,-2628,-752,5104,-104
207297,2015,1327,1073,14892,-1996,-12,-752,4262,654
207307,2027,1390,1075,15228,-1424,960,-768,4455,1566
207317,2023,1553,1075,13532,-4028,-3236,-768,2646,1410
207327,2021,1548,1065,13620,-5192,-4620,-800,-721,-390
207337,2021,1495,1054,15228,-4512,-1732,-768,-2984,-3199
207347,2024,1451,1051,15220,-5652,840,-752,-2456,-4821
207357,2024,1481,1051,15412,-7896,-1640,-832,-2197,-5296
207367,2020,1277,1072,15148,-10924,-4152,-736,-4422,-5191
207377,2024,1004,1145,15108,-17300,-4800,-752,-8176,-5236
207387,2013,969,1174,16976,-23644,-4692,-752,-12499,-5854
207397,2018,1818,1175,17592,-24216,-2668,-768,-12107,-5105
207407,2022,794,1133,18056,-17264,-3620,-784,-1229,-3680
207417,2020,787,1109,18192,-8796,-8532,-768,11664,-2541
207427,2023,831,1097,17932,-2736,-9716,-768,21208,-1603
207437,2021,1343,1078,16264,3624,-13116,-736,23448,-485
207447,2021,1451,1081,17684,8376,-5204,-768,23976,2150
207457,2019,1355,1095,18968,11200,-6552,-768,18363,6734
207467,2004,1685,1099,18220,10660,-5480,-784,8887,12101
207477,2021,1499,1095,16352,6680,-5708,-752,-4375,14165
207487,2019,1401,1092,13856,2544,-4252,-816,-13820,11170
207497,2023,1204,1096,12492,-1004,-2232,-784,-18587,5357
207507,2023,1129,1099,13016,-4016,-400,-768,-18545,-2097
207517,2021,1176,1086,14076,-4680,2128,-752,-13269,-8385
207527,2024,1221,1065,16360,-4760,1824,-784,-5136,-10855
207537,2017,1260,1067,18420,-3472,-176,-768,1785,-8672
207547,2015,1224,1086,19096,-1676,-1640,-800,5753,-4147
207557,2019,1239,1080,19100,224,-2136,-800,6974,879
207567,2021,1265,1083,17764,1316,-3760,-768,4575,4230
207577,2022,1278,1077,15840,2084,-4112,-752,1715,4145
207587,2021,1271,1070,14660,1724,-4272,-800,870,1252
207597,2021,1239,1071,15536,1348,-3732,-768,1537,-2169
207607,2020,1287,1076,16856,636,-3876,-752,1588,-3289
207617,2021,1326,1085,17764,504,-3956,-768,1133,-2372
207627,2019,1349,1087,18004,104,-4228,-736,778,-457
207637,2022,1311,1091,17568,-644,-4124,-752,473,1343
207647,2021,1267,1087,16500,-1172,-4060,-768,-110,2239
207657,2021,1235,1087,15756,-1616,-4200,-800,-669,1749
207667,2020,1238,1086,15548,-1916,-3912,-752,-1073,719
207677,2020,1135,1087,15820,-2100,-3396,-736,-1267,7
207687,2021,1193,1083,16384,-1672,-3116,-768,-1334,-98
207697,2021,1197,1085,16700,-1408,-2896,-752,-1490,193
207707,2019,1213,1081,16968,-1140,-2232,-784,-1299,704
207717,2019,1227,1087,16876,-1060,-2184,-816,-1032,911
207727,2021,1228,1081,16740,-1048,-2272,-784,-1105,740
207737,2023,1235,1124,16472,-1424,-2528,-768,-1420,448
207747,2023,1245,1082,16332,-1612,-2936,-752,-1504,109
207757,2022,1236,1082,16352,-1576,-2848,-784,-789,-246
207767,2023,1253,1083,16640,-1472,-2416,-768,329,-31
207777,2021,1227,1081,16848,-544,-2964,-768,1632,261
207787,2022,1234,1069,16884,-120,-3416,-800,1809,773
207797,2019,1250,1082,16656,168,-3608,-768,1000,1175
207807,2019,1253,1081,16436,-88,-3152,-800,51,1371
207817,2021,1271,1085,16344,-608,-3176,-768,-409,1018
207827,2020,1257,1084,16284,-968,-2944,-768,-449,369
207837,2023,1255,1081,16864,-1324,-2368,-784,-268,67
207847,2019,1245,1080,17036,-992,-2232,-768,388,213
207857,2020,1244,1083,16988,-724,-2740,-768,1107,581
207867,2019,1251,1083,16664,-532,-3296,-752,719,1062
207877,2019,1240,1083,16436,-596,-2892,-752,-259,1150
207887,2022,1229,1083,16156,-896,-3052,-768,-961,647
207897,2021,1207,1085,16096,-1172,-3128,-752,-1293,74
207907,2021,1211,1083,16592,-1384,-2820,-768,-1161,-157
207917,2023,1223,1086,16820,-1244,-2596,-768,-697,81
207927,2021,1235,1085,16928,-960,-2836,-752,-170,528
207937,2020,1261,1083,16828,-704,-2960,-768,112,979
207947,2022,1267,1083,16656,-400,-2992,-768,312,1041
207957,2021,1252,1079,16424,-500,-3092,-784,52,923
207967,2025,1244,1085,16472,-740,-2864,-800,-380,717
207977,2019,1245,1081,16624,-924,-2668,-800,-572,530
207987,2019,1224,1081,16728,-1092,-2012,-768,-271,594
207997,2012,1193,1075,16780,-1084,-2156,-784,216,834
208007,2019,1189,1083,16676,-1196,-2492,-768,313,948
208017,2021,1196,1081,16488,-1252,-2424,-784,205,877
208027,2020,1192,1079,16432,-1248,-2428,-752,193,613
208037,2019,1211,1080,16412,-1092,-2580,-800,230,454
208047,2022,1211,1081,16648,-832,-2996,-768,270,420
208057,2022,1253,1077,16724,-796,-2856,-800,219,561
208067,2019,1291,1085,16852,-864,-2976,-768,-21,617
208077,2019,1289,1087,16800,-932,-2780,-784,-169,599
208087,2021,1253,1084,16656,-1132,-2700,-768,-18,541
208097,2019,1224,1083,16504,-1260,-2544,-768,8,529
208107,2020,1206,1083,16532,-1244,-2824,-768,-121,613
208117,2021,1221,1085,16568,-1232,-2788,-752,-193,623
208127,2019,1227,1081,16588,-1172,-2588,-784,-99,536
208137,2028,1221,1083,16720,-1024,-2320,-720,106,514
208147,2020,1213,1081,16716,-1200,-2784,-784,149,543
208157,2019,1210,1083,16636,-928,-2500,-752,145,605
208167,2021,1183,1080,16668,-612,-2432,-752,290,667
208177,2019,1207,1083,16568,-392,-2612,-768,245,758
208187,2021,1215,1085,16588,-300,-2672,-752,-14,742
208197,2019,1235,1079,16540,-276,-2616,-784,-219,671
208207,2021,1251,1080,16712,-368,-2380,-768,-226,453
208217,2020,1251,1081,16724,-228,-2340,-736,119,359
208227,2021,1238,1081,16832,-296,-2464,-736,390,445
208237,2019,1223,1083,16896,-176,-2648,-720,103,639
208247,2022,1229,1081,16676,-364,-2484,-784,-404,793
208257,2021,1225,1075,16480,-576,-2544,-784,-722,648
208267,2020,1208,1082,16372,-808,-2656,-768,-803,356
208277,2023,1210,1081,16584,-1108,-2380,-752,-729,184
208287,2015,1250,1081,16920,-1168,-2172,-752,-522,209
208297,2020,1226,1081,16904,-1148,-2016,-768,-223,322
208307,2035,1223,1083,16736,-1236,-2264,-784,-15,419
208317,2020,1213,1083,16596,-1112,-2364,-752,98,503
208327,2019,1225,1085,16668,-888,-2524,-768,237,399
208337,2021,1245,1084,16380,-772,-2664,-768,282,218
208347,2021,1237,1084,16644,-892,-2696,-736,140,106
208357,2019,1236,1083,16728,-856,-2396,-736,-51,217
208367,2019,1225,1081,16780,-872,-2360,-736,-183,401
208377,2021,1207,1071,16576,-884,-2272,-736,17,412
208387,2021,1225,1081,16604,-996,-2496,-736,310,243
208397,2021,1202,1081,16720,-1036,-2348,-784,279,185
208407,2019,1207,1079,16760,-1112,-2220,-768,229,150
208417,2015,1224,1079,16764,-1096,-2300,-736,220,221
208427,2019,1215,1081,16816,-948,-1980,-752,384,426
208437,2019,1206,1083,16548,-1220,-1808,-784,431,551
208447,2013,1193,1082,16580,-1292,-1760,-768,316,484
208457,2021,1178,1083,16556,-1352,-1756,-768,347,146
208467,2021,1170,1085,16720,-1232,-2148,-768,660,-204
208477,2018,1188,1084,16804,-1132,-2504,-768,830,-274
208487,2020,1209,1079,16780,-988,-2596,-752,1002,-79
208497,2020,1227,1077,16708,-980,-2380,-768,1284,245
208507,2021,1261,1079,16716,-800,-2696,-768,1426,310
208517,2023,1259,1081,16580,-520,-3120,-752,1649,73
208527,2019,1263,1081,16740,-544,-3124,-736,1727,-80
208537,2019,1241,1080,16756,-152,-3376,-768,1567,27
208547,2019,1250,1081,16784,24,-3488,-784,1260,222
208557,2020,1235,1082,16828,8,-3704,-752,754,426
208567,2021,1247,1082,16768,-104,-3332,-800,429,548
208577,2020,1252,1085,16780,-496,-3164,-752,283,571
208587,2019,1253,1085,16752,-600,-2936,-736,222,599
208597,2020,1228,1081,16628,-760,-3044,-752,215,698
208607,2019,1227,1079,16680,-692,-2496,-784,326,704
208617,2019,1235,1079,16680,-688,-2212,-768,567,770
208627,2020,1228,1079,16796,-632,-2848,-736,762,690
208637,2017,1229,1081,16748,-100,-2596,-752,960,730
208647,2019,1196,1082,16700,116,-2672,-704,1064,996
208657,2019,1209,1080,16736,248,-3276,-736,426,1101
208667,2015,1237,1083,16508,352,-3164,-752,-254,1081
208677,2067,1234,1083,16596,188,-2948,-752,-771,1040
208687,2019,1216,1081,16568,48,-2452,-784,-1195,1119
208697,2020,1167,1081,16652,-368,-2316,-720,-1467,1126
208707,2003,1151,1083,16708,-608,-1996,-768,-1461,1067
208717,2019,1199,1081,16660,-744,-1776,-752,-988,959
208727,2009,1195,1080,16780,-696,-1864,-752,-432,874
208737,2020,1187,1077,16736,-376,-1908,-768,-167,980
208747,2019,1193,1079,16792,-320,-1772,-768,-180,1287
208757,2019,1164,1079,16568,-224,-2048,-768,-332,1314
208767,2021,1177,1071,16408,-208,-1964,-768,-429,1032
208777,2020,1159,1080,16484,-404,-2132,-768,-673,759
208787,2015,1179,1079,16540,-376,-1888,-736,-779,661
208797,2019,1187,1079,16620,-664,-1884,-768,-689,693
208807,2019,1181,1081,16664,-744,-1808,-752,-641,873
208817,2017,1195,1083,16788,-932,-1872,-736,-587,915
208827,2019,1195,1081,16636,-872,-1704,-768,-451,873
208837,2021,1211,1079,16696,-1236,-1852,-720,-510,790
208847,2015,1224,1081,16632,-1400,-1892,-720,-708,608
208857,2018,1228,1081,16652,-1540,-1780,-736,-744,357
208867,2015,1197,1080,16792,-1748,-1488,-752,-407,394
208877,2019,1177,1067,16784,-1880,-1928,-736,-73,405
208887,2019,1179,1080,16720,-1648,-1880,-736,179,488
208897,2019,1196,1083,16748,-1624,-1812,-752,314,678
208907,2021,1191,1078,16712,-1280,-1860,-736,346,787
208917,2019,1213,1080,16564,-1364,-1792,-768,161,751
208927,2015,1203,1079,16708,-956,-1640,-720,107,620
208937,2019,1190,1081,16800,-792,-1604,-768,330,418
208947,2021,1196,1082,16780,-708,-1768,-736,334,344
208957,2019,1191,1080,16804,-332,-1656,-736,280,416
208967,2021,1199,1061,16952,-256,-1820,-752,97,498
208977,2019,1203,1079,16688,-332,-2192,-736,-334,281
208987,2020,1207,1083,16712,-532,-2008,-784,-694,64
208997,2021,1208,1083,16760,-572,-1884,-784,-637,195
209007,2019,1225,1083,16652,-736,-1920,-768,-465,181
209017,2019,1213,1079,16644,-964,-1716,-736,-223,156
209027,2021,1211,1077,16740,-872,-1556,-736,73,255
209037,2019,1197,1079,16792,-796,-1992,-736,151,319
209047,2022,1191,1081,16596,-732,-1928,-752,57,297
209057,2019,1208,1080,16576,-760,-1796,-768,-261,309
209067,2019,1209,1081,16596,-896,-1856,-736,-385,333
209077,2018,1198,1081,16644,-964,-1836,-736,-367,220
209087,2018,1187,1080,16736,-1272,-1676,-720,-277,141
209097,2023,1187,1079,16720,-1316,-1784,-720,-149,155
209107,2019,1189,1077,16764,-1028,-1804,-784,26,313
