timestamp_ms,mmg1,mmg2,mmg3,accelX,accelY,accelZ,gyroX,gyroY,gyroZ
310142,1959,1161,779,16700,-2588,-228,-848,-1731,-1202
310152,1957,1160,797,16244,-2800,492,-848,-2433,-1680
310162,1959,1160,779,16804,-3024,128,-880,-2820,-1947
310172,1959,1145,777,16376,-3460,-1624,-896,-3623,-2496
310182,1962,1174,777,17152,-3328,-708,-864,-6015,-5169
310192,1959,1191,773,16944,-2240,168,-864,-7036,-5046
310202,1959,1127,773,16540,-1752,-544,-864,-6573,-3560
310212,1959,1077,767,15964,-1236,-600,-880,-7064,-4522
310222,1959,1071,775,17760,1588,-144,-864,-6006,-4913
310232,1959,1076,761,17124,-856,220,-896,-1287,-5587
310242,1957,1070,780,18200,-5300,1400,-880,-2454,-3535
310252,1958,1187,765,17528,-388,616,-880,-1872,-3054
310262,1957,1164,780,16800,-3788,-1424,-896,-844,-2242
310272,1959,1182,773,17500,-3568,-60,-864,-1402,-1310
310282,1959,1140,774,16792,-3184,-1256,-896,-2682,-417
310292,1958,1156,775,16596,-2732,-1260,-896,-2684,-557
310302,1959,1059,780,16324,-3180,-300,-864,-1712,-1286
310312,1951,1195,777,16564,-2544,-112,-896,-741,-1844
310322,1960,1101,775,16296,-2020,-480,-896,-734,-2132
310332,1957,1141,776,17264,-804,-1376,-880,-1200,-1730
310342,1955,1143,777,16952,-960,-1296,-880,-1048,-1179
310352,1941,1005,757,16816,-1472,-1212,-864,-1308,-597
310362,1955,1222,774,17056,-2104,-1452,-880,-2610,-134
310372,1956,1096,777,16584,-2300,-1640,-880,-3264,-49
310382,1959,1093,776,16296,-2460,-828,-864,-2423,-697
310392,1960,1107,767,16592,-2456,-788,-864,-1101,-1168
310402,1958,1099,775,16784,-2296,-1256,-896,-495,-1223
310412,1959,1099,775,16756,-2140,-1592,-864,-517,-946
310422,1957,1110,776,16624,-2064,-1996,-880,-941,-600
310432,1959,1129,776,16728,-1908,-1588,-864,-1105,-338
310442,1959,1125,776,16628,-1860,-1428,-880,-919,-304
310452,1955,1126,775,16580,-2024,-1704,-880,-805,-394
310462,1959,1129,773,16616,-2280,-1768,-880,-842,-544
310472,1957,1115,775,16652,-2172,-1324,-864,-722,-644
310482,1959,1098,776,16712,-2224,-1040,-864,-206,-729
310492,1957,1109,774,16628,-2192,-1432,-832,271,-660
310502,1958,1111,775,16416,-2032,-1496,-896,700,-732
310512,1959,1109,775,16460,-2008,-1812,-896,714,-787
310522,1950,1093,775,16468,-1832,-2156,-848,425,-893
310532,1957,1095,775,16596,-1808,-1924,-880,123,-988
310542,1961,1086,775,16672,-1436,-1776,-912,-33,-1098
310552,1958,1093,775,16656,-1292,-1996,-864,-275,-1068
310562,1941,1091,773,16772,-928,-1860,-880,-354,-862
310572,1957,1081,775,16944,-680,-1960,-848,-311,-868
310582,1959,1019,774,16772,-504,-2096,-880,-381,-1024
310592,1959,1075,775,16664,-596,-2200,-864,-696,-977
310602,1959,1087,774,16680,-1012,-1936,-864,-1174,-838
310612,1958,1078,773,16784,-1020,-1704,-864,-1286,-1021
310622,1957,1078,773,16660,-1232,-1352,-864,-964,-1351
310632,1957,1065,767,16624,-1128,-1788,-864,-638,-1426
310642,1959,1077,767,16580,-1404,-1888,-880,-950,-1241
310652,1957,1051,773,16740,-1676,-1872,-880,-1432,-1254
310662,1957,1075,767,16612,-2004,-1712,-912,-1683,-1622
310672,1959,1081,773,16508,-2084,-1608,-880,-1604,-1656
310682,1959,1078,773,16572,-2492,-1612,-864,-1637,-1671
310692,1961,1056,776,16596,-2648,-1672,-848,-1714,-1689
310702,1959,997,773,16876,-2988,-2160,-848,-1803,-1907
310712,1957,1107,766,16904,-2996,-2624,-864,-1747,-2261
310722,1961,1138,766,16948,-2704,-2504,-896,-1194,-2012
310732,1958,1118,767,17100,-2828,-3040,-864,-940,-1491
310742,1957,1133,775,16576,-3380,-3408,-880,-1372,-860
310752,1959,1140,776,16332,-4108,-3120,-880,-2056,-328
310762,1957,1108,777,16092,-5016,-2900,-880,-2705,-446
310772,1959,1092,787,15608,-5688,-2908,-880,-3106,-852
310782,1959,1095,781,15512,-6140,-2452,-880,-2771,-1230
310792,1958,1049,791,16036,-6560,-2376,-880,-1637,-1830
310802,1958,1051,787,16392,-5852,-2328,-896,101,-2069
310812,1966,1069,779,16760,-5108,-2060,-896,2224,-1490
310822,1957,1075,779,16916,-3720,-2440,-880,3801,-671
310832,1955,1055,779,16628,-2276,-3196,-896,4203,98
310842,1958,1067,777,16196,-1644,-3688,-896,3654,117
310852,1958,1085,777,16204,-1016,-3604,-864,2539,-430
310862,1959,1083,776,16292,-548,-3236,-848,1509,-980
310872,1957,1069,777,16480,-816,-3392,-896,755,-1190
310882,1959,1069,775,16368,-956,-2936,-880,555,-899
310892,1957,1076,773,16524,-1156,-2448,-864,1179,-580
310902,1957,1093,775,16320,-900,-2616,-896,2080,-381
310912,1957,1071,776,16324,-104,-2800,-896,2761,-447
310922,1957,1075,775,16380,388,-2984,-832,2965,-597
310932,1957,1158,774,16512,852,-3140,-864,2700,-895
310942,1960,1118,767,16576,1220,-3444,-848,2535,-1186
310952,1957,1123,765,16876,1612,-3444,-896,2394,-1319
310962,1957,1131,767,16916,1824,-3616,-864,2183,-1023
310972,1957,1133,767,16820,1980,-3440,-912,1728,-533
310982,1959,1128,775,16708,1724,-3840,-912,899,-219
310992,1957,1131,774,16420,1064,-3644,-832,-171,-157
311002,1959,1122,775,16256,736,-3536,-880,-687,-400
311012,1959,1127,763,16448,36,-3240,-912,-678,-785
311022,1963,1146,767,16716,-312,-3208,-864,-521,-869
311032,1959,1189,773,17088,-212,-2984,-880,-129,-528
311042,1983,1093,775,16828,-296,-3268,-864,167,-51
311052,1959,1119,777,16584,-152,-3552,-864,224,267
311062,1956,1113,777,16316,-200,-3760,-880,243,81
311072,1958,1101,767,16348,-224,-3712,-864,218,-71
311082,1959,1083,776,16436,-208,-3784,-864,-77,-61
311092,1957,1085,777,16552,-232,-3876,-880,-362,43
311102,1959,1098,776,16636,-348,-3568,-848,-485,232
311112,1957,1110,773,16608,-344,-3616,-896,-564,437
311122,1958,1111,774,16592,-368,-3460,-880,-572,520
311132,1959,1095,774,16552,-236,-3480,-880,-699,621
311142,1958,1108,774,16468,-536,-3412,-864,-715,560
311152,1959,1145,775,16620,-596,-3252,-864,-776,381
311162,1958,1139,775,16624,-424,-3256,-896,-536,369
311172,1957,1113,739,16648,-248,-3292,-864,-128,489
311182,1959,1099,773,16696,-188,-3324,-896,-35,685
311192,1957,1098,775,16576,-108,-3144,-896,-251,832
311202,1957,1097,774,16540,56,-3300,-896,-513,785
311212,1957,1093,790,16312,-16,-3396,-848,-834,674
311222,1957,1095,774,16508,-204,-3244,-896,-1254,529
311232,1957,1102,775,16612,-444,-3132,-864,-1403,462
311242,1959,1111,773,16644,-584,-3008,-880,-1119,493
311252,1961,1111,773,16804,-544,-2860,-848,-785,785
311262,1933,1103,775,16692,-400,-2984,-864,-702,972
311272,1959,1109,775,16424,-384,-3372,-880,-962,997
311282,1957,1115,777,16404,-728,-3008,-912,-1285,790
311292,1959,1124,794,16440,-988,-2820,-864,-1382,422
311302,1958,1111,773,16712,-1032,-2560,-864,-1141,266
311312,1958,1105,775,16896,-660,-2640,-864,-449,396
311322,1957,1096,774,16864,-240,-2692,-864,97,787
311332,1957,1096,775,16656,48,-2852,-896,-119,1180
311342,1957,1107,777,16480,212,-2964,-880,-686,1159
311352,1957,1100,767,16236,-72,-3040,-864,-1200,743
311362,1959,1117,773,16360,-292,-2876,-848,-1530,253
311372,1959,1101,773,16696,-408,-2740,-880,-1462,106
311382,1957,1113,768,16888,-488,-2384,-864,-1101,371
311392,1958,1108,765,16912,-312,-2552,-848,-673,838
311402,1957,1107,773,16572,-276,-2724,-880,-642,1027
311412,1957,1107,773,16448,-476,-2804,-864,-916,838
311422,1957,1100,767,16304,-740,-2780,-864,-1081,376
311432,1957,1107,767,16520,-960,-2672,-880,-1112,-12
311442,1957,1113,767,16796,-816,-2972,-864,-903,-26
311452,1957,1124,775,16940,-704,-2804,-864,-467,283
311462,1958,1135,775,16752,-320,-2732,-848,-108,783
311472,1957,1119,775,16500,-320,-3112,-880,-133,932
311482,1957,1125,773,16392,-164,-3160,-880,-295,614
311492,1957,1125,771,16464,-20,-2860,-848,-496,226
311502,1958,1115,767,16668,-132,-2980,-896,-725,129
311512,1956,1122,767,16696,-324,-2896,-880,-950,261
311522,1959,1128,773,16768,-564,-2560,-880,-952,507
311532,1957,1127,767,16664,-880,-2672,-864,-819,581
311542,1959,1128,767,16472,-992,-2652,-912,-500,457
311552,1959,1126,774,16436,-1008,-2864,-880,-265,225
311562,1959,1123,773,16616,-968,-2572,-896,-131,190
311572,1959,1115,775,16772,-832,-2620,-896,-86,288
311582,1959,1110,773,16652,-704,-2784,-848,-193,410
311592,1958,1096,761,16516,-804,-2772,-896,-244,409
311602,1958,1109,774,16452,-976,-2800,-864,-241,389
311612,1958,1110,774,16364,-984,-3028,-880,-216,227
311622,1959,1114,767,16436,-948,-2720,-864,-189,173
311632,1958,1107,767,16740,-880,-2576,-848,6,212
311642,1959,1106,773,16748,-740,-2812,-848,216,296
311652,1959,1107,773,16736,-808,-2812,-848,186,385
311662,1957,1107,766,16548,-812,-2620,-848,101,375
311672,1959,1109,761,16512,-652,-2592,-880,140,115
311682,1958,1108,773,16468,-584,-2728,-864,177,165
311692,1959,1103,773,16628,-368,-2748,-880,159,93
311702,1957,1131,774,16700,-196,-2476,-880,202,31
311712,1959,1131,773,16768,-52,-2708,-864,292,143
311722,1958,1127,767,16660,104,-2712,-832,395,295
311732,1955,1111,765,16800,188,-2864,-880,182,274
311742,1951,1128,767,16620,60,-2944,-896,-204,134
311752,1956,1117,766,16728,184,-2888,-864,-322,-18
311762,1959,1119,763,16692,132,-2836,-880,-136,28
311772,1957,1113,766,16684,-84,-2864,-848,-162,194
311782,1958,1117,765,16592,-272,-2756,-880,-278,284
311792,1959,1114,755,16560,-372,-2848,-880,-160,218
311802,1959,1113,765,16548,-492,-2624,-896,36,0
311812,1957,1115,767,16632,-460,-2876,-880,136,-124
311822,1957,1114,767,16788,-388,-2720,-880,170,-103
311832,1955,1126,767,16820,-408,-2964,-864,89,61
311842,1959,1119,803,16620,-392,-2808,-880,82,163
311852,1956,1119,773,16580,-588,-2964,-848,92,114
311862,1959,1127,774,16484,-576,-2888,-864,33,11
311872,1957,1117,773,16568,-704,-3140,-864,-93,-51
311882,1959,1121,775,16660,-892,-2908,-880,-220,-50
311892,1957,1114,773,16716,-800,-3008,-864,-143,93
311902,1957,1113,772,16664,-912,-2856,-864,16,207
311912,1959,1113,795,16628,-836,-2664,-848,116,329
311922,1959,1121,765,16588,-704,-2708,-864,227,376
311932,1957,1114,765,16456,-572,-2852,-864,157,218
311942,1956,1119,763,16628,-548,-2912,-880,43,75
311952,1958,1131,766,16584,-424,-2816,-880,-72,28
311962,1959,1139,765,16764,-496,-3032,-864,-10,4
311972,1957,1122,773,16712,-344,-2848,-880,250,118
311982,1957,1123,729,16740,-332,-2996,-864,454,239
311992,1959,1127,765,16776,-204,-2872,-880,283,299
312002,1957,1125,773,16648,-276,-2640,-848,36,215
312012,1959,1112,774,16664,-296,-2560,-864,-23,-38
312022,1965,1109,767,16600,-384,-2604,-848,136,-181
312032,1959,1125,765,16696,-156,-2836,-880,328,-128
312042,1955,1126,763,16804,-108,-2600,-864,394,98
312052,1958,1143,766,16628,60,-2736,-864,318,269
312062,1961,1141,767,16656,-48,-2944,-880,46,193
312072,1959,1127,772,16496,-196,-2856,-864,-158,46
312082,1957,1115,773,16476,-308,-2548,-864,-196,-213
312092,1957,1114,767,16524,-648,-2640,-848,-185,-203
312102,1957,1110,774,16516,-688,-2788,-896,-50,-186
312112,1957,1115,772,16672,-900,-2472,-848,188,-105
312122,1959,1125,767,16588,-912,-2792,-880,272,-34
312132,1958,1117,766,16552,-996,-2728,-848,378,-106
312142,1956,1113,814,16568,-1104,-2844,-832,517,-160
312152,1957,1109,765,16420,-1080,-3052,-880,522,-185
312162,1957,1117,767,16568,-1076,-3112,-864,522,-185
312172,1959,1125,765,16528,-1012,-3012,-864,604,-214
312182,1957,1131,765,16668,-800,-3292,-848,587,-52
312192,1957,1108,767,16736,-804,-3140,-896,476,77
312202,1957,1134,765,16608,-680,-3100,-864,465,88
312212,1957,1131,767,16680,-776,-3040,-880,312,59
312222,1939,1118,765,16528,-740,-3120,-864,156,50
312232,1959,1111,767,16512,-700,-3016,-832,127,-3
312242,1957,1105,765,16536,-668,-3008,-880,4,30
312252,1955,1112,779,16648,-724,-3012,-880,-37,19
312262,1955,1125,767,16640,-876,-2876,-864,58,-61
312272,1956,1124,766,16628,-832,-2776,-848,305,-50
312282,1957,1131,764,16620,-560,-3124,-864,622,-70
312292,1956,1133,764,16640,-268,-2932,-864,695,40
312302,1949,1123,763,16528,-88,-3208,-896,418,113
312312,1957,1140,740,16584,-312,-3192,-864,-4,83
312322,1957,1133,767,16524,-268,-2796,-896,-239,-8
312332,1957,1123,765,16672,-492,-2776,-896,-13,-77
312342,1960,1111,766,16504,-848,-3084,-864,-26,-198
312352,1955,1124,767,16572,-1036,-2908,-864,-46,-157
312362,1957,1135,766,16556,-1004,-2880,-848,220,-53
312372,1956,1129,766,16540,-804,-3232,-864,495,52
312382,1957,1134,767,16608,-728,-3188,-896,467,102
312392,1958,1129,765,16528,-600,-3416,-848,203,107
312402,1958,1135,773,16460,-556,-3108,-848,23,40
312412,1955,1131,765,16476,-608,-3220,-864,16,-7
312422,1957,1135,767,16640,-720,-3104,-880,59,-11
312432,1957,1127,763,16652,-648,-3128,-880,8,41
312442,1957,1125,779,16668,-624,-3064,-864,-5,112
312452,1957,1119,766,16664,-508,-3104,-848,29,164
312462,1959,1113,792,16580,-452,-3004,-896,-14,221
312472,1957,1113,766,16496,-560,-3096,-864,-158,221
312482,1957,1111,766,16468,-520,-3116,-880,-275,74
312492,1955,1114,765,16480,-624,-3036,-864,-322,89
312502,1956,1112,764,16692,-588,-2872,-832,-178,19
312512,1959,1115,764,16712,-532,-3080,-848,-92,88
312522,1959,1124,765,16664,-492,-2988,-864,-11,188
312532,1958,1095,765,16536,-280,-3108,-864,120,225
312542,1959,1133,765,16624,-384,-3116,-848,69,141
312552,1957,1132,766,16536,-264,-3236,-848,-46,95
312562,1934,1130,765,16652,-240,-2960,-864,-108,112
312572,1955,1131,767,16632,-256,-2960,-880,-166,119
312582,1957,1129,755,16556,-212,-3156,-864,-232,122
312592,1957,1133,764,16548,-348,-2976,-864,-395,157
312602,1957,1135,767,16516,-280,-2980,-864,-484,137
312612,1957,1132,765,16656,-532,-3180,-864,-471,69
312622,1957,1133,764,16572,-636,-3020,-864,-444,15
312632,1958,1113,763,16556,-648,-2892,-864,-345,24
312642,1957,1129,766,16556,-664,-3132,-864,-183,73
312652,1951,1139,765,16652,-644,-3192,-864,-61,154
312662,1943,1133,763,16648,-552,-3304,-848,-153,182
312672,1959,1133,762,16572,-636,-3572,-864,-369,256
312682,1958,1144,765,16536,-684,-3312,-864,-483,154
312692,1957,1139,767,16704,-904,-3168,-880,-450,30
312702,1957,1141,765,16752,-820,-2936,-848,-224,60
312712,1956,1140,765,16800,-800,-3200,-896,-139,236
312722,1956,1136,767,16748,-884,-3268,-880,-197,274
312732,1958,1131,766,16516,-876,-3052,-848,-238,278
312742,1959,1139,767,16564,-780,-2980,-864,-198,247
312752,1961,1124,765,16536,-796,-3420,-880,-319,173
312762,1959,1117,766,16568,-888,-3364,-864,-511,141
312772,1957,1125,766,16544,-916,-3008,-864,-422,148
312782,1955,1117,762,16620,-952,-2948,-880,-128,195
312792,1957,1121,764,16508,-912,-3096,-864,163,133
312802,1956,1127,763,16784,-616,-3072,-896,241,171
312812,1957,1127,763,16664,-472,-3076,-848,245,253
312822,1949,1119,766,16556,-408,-3360,-864,155,260
312832,1962,1125,764,16548,-492,-3220,-864,4,184
312842,1957,1143,765,16496,-604,-2948,-912,-114,88
312852,1957,1139,763,16488,-736,-2996,-848,-114,-2
312862,1957,1117,795,16584,-652,-3036,-864,54,64
312872,1959,1129,765,16628,-716,-2996,-880,303,200
312882,1957,1119,763,16532,-504,-3076,-864,406,344
312892,1958,1123,755,16536,-580,-3216,-864,294,345
312902,1957,1124,764,16480,-496,-3084,-832,188,188
312912,1955,1118,765,16580,-416,-3020,-864,270,30
312922,1957,1129,765,16608,-500,-3336,-864,108,108
312932,1958,1125,765,16596,-476,-3284,-848,-36,214
312942,1957,1140,765,16624,-524,-3068,-864,150,257
312952,1957,1131,764,16516,-492,-3256,-864,378,239
312962,1958,1129,765,16596,-364,-3236,-880,264,230
312972,1957,1141,766,16584,-344,-3152,-864,28,208
312982,1956,1141,795,16648,-244,-3108,-864,-33,230
312992,1956,1151,764,16380,-408,-3232,-880,-118,169
313002,1957,1139,765,16560,-552,-3212,-848,-271,148
313012,1957,1135,767,16528,-388,-3184,-864,-251,205
313022,1957,1135,763,16568,-356,-2960,-848,-85,290
313032,1957,1125,763,16548,-392,-3152,-848,13,308
313042,1957,1139,761,16512,-404,-3116,-896,-47,257
313052,1958,1132,764,16560,-248,-3008,-880,-75,204
313062,1956,1125,764,16596,-124,-3108,-864,14,219
313072,1931,1127,763,16720,-164,-3180,-832,-149,249
313082,1957,1133,767,16596,-300,-3036,-864,-277,270
313092,1957,1132,764,16552,-208,-2988,-864,-211,210
313102,1956,1122,765,16544,-252,-2984,-864,-116,180
313112,1957,1124,764,16596,-336,-3128,-880,-172,175
313122,1957,1128,765,16576,-460,-3144,-864,-309,222
313132,1957,1130,764,16520,-348,-2892,-864,-193,180
313142,1957,1135,764,16548,-308,-3088,-880,-18,203
313152,1949,1131,743,16576,-356,-3212,-848,-115,198
313162,1956,1123,767,16596,-472,-3024,-864,-248,176
313172,1957,1131,762,16540,-472,-3112,-848,-181,69
313182,1957,1143,763,16584,-448,-2924,-848,12,66
313192,1956,1117,761,16680,-304,-2768,-864,88,197
313202,1957,1127,759,16600,-172,-3024,-864,17,283
313212,1957,1159,765,16696,-264,-3096,-832,-65,200
313222,1956,1133,765,16524,-256,-3244,-896,-151,183
313232,1955,1131,763,16548,-364,-3280,-832,-144,127
313242,1958,1134,764,16624,-400,-3084,-864,-64,140
313252,1957,1138,763,16504,-412,-3056,-832,-57,251
313262,1956,1131,764,16604,-332,-3180,-848,-127,339
313272,1957,1133,763,16508,-412,-2992,-896,-242,285
313282,1959,1139,761,16484,-436,-2856,-896,-327,163
313292,1957,1135,763,16672,-492,-3124,-880,-231,-130
313302,1957,1163,763,16516,-672,-3096,-848,-10,19
313312,1957,1135,764,16620,-620,-3084,-864,171,112
313322,1956,1132,762,16708,-528,-3304,-848,258,288
313332,1957,1127,764,16568,-320,-3412,-848,151,409
313342,1957,1138,764,16384,-344,-3368,-864,-114,341
313352,1949,1141,766,16492,-392,-3160,-832,-354,155
313362,1958,1121,763,16672,-484,-2884,-864,-362,60
313372,1963,1129,762,16624,-604,-2920,-864,-156,111
313382,1956,1131,762,16576,-524,-2996,-864,3,308
313392,1956,1127,762,16632,-444,-3004,-864,147,425
313402,1956,1126,763,16460,-448,-3056,-864,127,381
313412,1957,1131,761,16428,-404,-3332,-848,-17,261
313422,1957,1126,763,16456,-340,-3116,-896,-121,157
313432,1957,1133,763,16544,-416,-3364,-864,-142,82
313442,1983,1143,763,16764,-404,-3116,-880,-278,173
313452,1957,1139,745,16692,-452,-2896,-880,-181,319
313462,1949,1133,765,16592,-444,-3120,-864,-17,375
313472,1957,1139,742,16492,-636,-3056,-880,-46,312
313482,1955,1139,763,16536,-440,-2724,-896,-62,287
313492,1955,1129,763,16668,-312,-3096,-896,-88,200
313502,1956,1131,761,16588,-328,-2928,-864,-143,125
313512,1952,1135,761,16748,-296,-3032,-864,-128,97
313522,1955,1145,761,16648,-156,-3040,-832,34,157
313532,1957,1135,763,16532,-96,-3168,-880,161,236
313542,1959,1140,764,16564,-168,-3288,-864,-28,291
313552,1957,1147,763,16508,-200,-3132,-896,-185,262
313562,1959,1149,763,16624,-124,-3004,-880,-212,133
313572,1959,1147,763,16640,-304,-3072,-864,-209,156
313582,1957,1147,763,16632,-372,-3084,-864,-318,205
313592,1957,1141,813,16548,-392,-3156,-848,-346,204
313602,1957,1139,763,16500,-500,-2912,-880,-222,137
313612,1957,1135,763,16516,-520,-3020,-864,-111,93
313622,1956,1129,763,16648,-576,-3100,-880,13,158
313632,1957,1131,760,16656,-384,-3284,-848,-38,198
313642,1956,1131,763,16620,-432,-3260,-864,-175,243
313652,1959,1127,761,16568,-416,-3032,-880,-281,259
313662,1955,1113,760,16544,-380,-3144,-832,-294,189
313672,1956,1125,761,16516,-412,-3108,-864,-330,113
313682,1957,1123,763,16644,-496,-3008,-864,-286,101
313692,1961,1125,761,16704,-460,-3020,-864,-129,204
313702,1957,1125,763,16524,-520,-2900,-864,3,251
313712,1955,1131,765,16660,-376,-3040,-880,18,238
313722,1955,1147,760,16592,-336,-3272,-832,31,252
313732,1956,1141,763,16520,-364,-3392,-864,-19,59
313742,1956,1141,761,16672,-312,-3056,-880,-27,6
313752,1956,1134,763,16716,-200,-3096,-848,-11,140
313762,1955,1141,763,16636,-180,-2844,-864,110,214
313772,1957,1144,760,16704,-188,-2876,-880,42,220
313782,1957,1141,759,16560,-212,-2924,-848,41,191
313792,1981,1113,763,16552,-184,-3032,-864,78,27
313802,1957,1130,761,16664,-240,-3296,-880,-26,-90
313812,1955,1136,761,16696,-136,-3052,-880,-61,67
313822,1956,1127,763,16636,-88,-3068,-864,-9,254
313832,1957,1135,763,16496,-212,-3096,-864,34,237
313842,1957,1134,763,16412,-304,-3192,-864,-93,165
313852,1951,1143,761,16560,-348,-3132,-864,-230,53
313862,1956,1135,764,16628,-276,-2956,-832,-81,-52
313872,1956,1149,762,16752,-436,-3028,-848,35,-63
313882,1957,1127,763,16768,-412,-2860,-896,91,71
313892,1963,1133,761,16664,-424,-3296,-848,124,163
313902,1959,1139,763,16444,-276,-3300,-864,31,148
313912,1957,1141,761,16428,-316,-3256,-880,7,38
313922,1955,1141,757,16500,-384,-3228,-880,-79,32
313932,1925,1135,761,16548,-276,-3312,-880,-115,16
313942,1995,1139,763,16616,-384,-3012,-832,32,113
313952,1956,1135,759,16696,-400,-2932,-880,75,215
313962,1956,1127,759,16560,-304,-3080,-880,202,192
313972,1963,1127,763,16668,-44,-3128,-864,284,156
313982,1955,1132,761,16652,-176,-3128,-864,181,119
313992,1957,1129,764,16612,-120,-3112,-848,22,100
314002,1957,1141,761,16516,-40,-2960,-864,32,48
314012,1957,1141,762,16568,-84,-3008,-896,157,39
314022,1955,1139,761,16548,-160,-3336,-832,68,46
314032,1957,1145,755,16540,-112,-3316,-864,-69,74
314042,1955,1149,761,16660,-96,-3224,-864,-53,67
314052,1957,1139,761,16680,-288,-3316,-912,12,111
314062,1957,1141,760,16492,-216,-3416,-880,-60,121
314072,1957,1133,761,16604,-352,-3292,-864,-123,91
314082,1956,1133,760,16660,-488,-3320,-880,-166,62
314092,1957,1124,760,16656,-376,-3340,-880,-149,85
314102,1955,1128,763,16568,-460,-3360,-864,-162,54
314112,1957,1133,763,16784,-428,-3344,-864,-252,228
314122,1952,1131,763,16596,-324,-3256,-864,-264,365
314132,1957,1140,762,16568,-368,-3488,-896,-308,348
314142,1955,1159,759,16372,-416,-3120,-880,-481,278
314152,1955,1115,761,16552,-436,-3204,-832,-378,129
314162,1956,1143,776,16648,-528,-3140,-896,-236,155
314172,1956,1147,763,16584,-572,-3120,-848,-87,188
314182,1955,1171,761,16560,-424,-2980,-896,101,315
314192,1955,1163,761,16572,-260,-3088,-864,226,367
314202,1951,1148,747,16496,-148,-3508,-848,145,360
314212,1955,1140,761,16364,-136,-3436,-848,-214,269
314222,1955,1131,760,16348,-256,-3164,-864,-437,216
314232,1956,1117,762,16560,-320,-3228,-880,-439,167
314242,1955,1119,763,16592,-444,-3148,-848,-338,208
314252,1959,1130,760,16596,-488,-3060,-832,-148,294
314262,1955,1135,761,16740,-328,-2976,-832,57,388
314272,1962,1125,762,16596,-220,-3232,-864,334,359
314282,1955,1131,763,16596,-76,-3328,-864,151,318
314292,1957,1133,765,16552,24,-3296,-864,-235,276
314302,1957,1131,758,16488,-228,-3452,-848,-365,133
314312,1956,1133,762,16468,-260,-3124,-864,-228,95
314322,1957,1139,760,16632,-340,-3168,-848,-115,194
314332,1957,1146,760,16676,-236,-3136,-848,-47,318
314342,1955,1145,759,16572,-208,-3048,-832,61,382
314352,1955,1139,760,16544,-184,-3048,-848,103,368
314362,1955,1131,760,16548,-160,-3092,-848,-71,256
314372,1956,1131,760,16628,-160,-3208,-832,-209,158
314382,1957,1129,761,16556,-152,-3168,-848,-202,114
314392,1955,1131,760,16644,-308,-3044,-848,-95,120
314402,1939,1128,759,16856,-288,-3084,-864,-24,264
314412,1955,1135,761,16552,-308,-3216,-864,-5,402
314422,1957,1147,761,16548,-236,-3092,-880,81,392
314432,1957,1157,761,16596,-128,-3068,-896,18,396
314442,1957,1165,760,16532,-288,-3200,-832,-139,255
314452,1952,1149,761,16604,-392,-2928,-880,-109,145
314462,1956,1140,760,16680,-568,-2904,-848,-55,204
314472,1952,1131,760,16656,-464,-2984,-848,135,244
314482,1956,1134,760,16556,-416,-3136,-848,337,182
314492,1955,1131,761,16536,-416,-3076,-864,354,246
314502,1957,1132,761,16632,-192,-3412,-880,241,228
314512,1955,1139,759,16624,-228,-3228,-880,146,352
314522,1955,1144,760,16608,-236,-3308,-864,-67,244
314532,1955,1139,760,16544,-204,-3256,-848,-172,270
314542,1955,1143,760,16548,-204,-3268,-880,-193,209
314552,1956,1141,760,16644,-316,-3068,-864,-55,245
314562,1957,1143,759,16656,-308,-3140,-864,68,346
314572,1957,1133,761,16580,-148,-3056,-848,181,358
314582,1956,1133,761,16716,-40,-3036,-864,176,338
314592,1955,1138,760,16580,-72,-3100,-864,34,274
314602,1951,1135,762,16596,40,-3100,-848,-91,260
314612,1955,1143,759,16652,-120,-3116,-848,-87,209
314622,1957,1145,751,16716,-28,-3056,-832,-33,230
314632,1955,1146,757,16652,-88,-3012,-880,-3,241
314642,1944,1143,760,16536,-136,-3224,-848,-18,276
314652,1955,1135,759,16480,-56,-3136,-896,21,250
314662,1956,1157,759,16604,-4,-3016,-864,27,262
314672,1956,1144,759,16548,-152,-3304,-864,-88,275
314682,1947,1157,757,16560,-60,-3240,-864,-176,181
314692,1955,1149,759,16632,-200,-3124,-864,-185,148
314702,1951,1143,759,16608,-396,-3096,-864,-218,217
314712,1955,1129,759,16580,-312,-3152,-864,-145,223
314722,1955,1139,759,16724,-188,-3084,-848,47,245
314732,1955,1135,759,16524,-152,-3232,-864,49,296
314742,1956,1141,760,16668,-80,-3220,-896,-106,263
314752,1955,1147,760,16500,-124,-3112,-880,-148,239
314762,1957,1145,759,16544,-8,-3136,-880,-160,231
314772,1957,1140,760,16560,-44,-3136,-864,-278,247
314782,1955,1145,796,16616,-140,-3400,-848,-324,237
314792,1956,1146,759,16548,-240,-3008,-848,-227,248
314802,1953,1143,760,16624,-328,-3184,-832,-162,273
314812,1955,1145,757,16548,-288,-3068,-832,-86,287
314822,1955,1144,759,16600,-264,-3096,-864,-13,260
314832,1955,1139,758,16584,-216,-2976,-864,3,281
314842,1957,1141,762,16636,-208,-3196,-896,-102,263
314852,1955,1133,759,16536,-308,-3100,-864,-143,203
314862,1951,1130,760,16560,-296,-3128,-864,-147,145
314872,1955,1117,761,16532,-200,-3136,-880,-170,172
314882,1957,1131,761,16684,-212,-3096,-880,-69,209
314892,1959,1138,759,16624,-200,-2928,-896,-23,250
314902,1951,1140,759,16568,-148,-3052,-880,-163,281
314912,1956,1097,759,16500,-276,-3092,-848,-186,84
314922,1951,1150,759,16484,-348,-3148,-864,-162,377
314932,1951,1135,758,16616,-388,-3192,-848,-124,161
314942,1952,1148,758,16672,-284,-2984,-848,-4,108
314952,1955,1140,758,16708,-316,-3116,-864,45,153
314962,1955,1141,758,16712,-196,-3028,-832,-10,237
314972,1955,1145,759,16464,-184,-3176,-864,-42,260
314982,1955,1147,757,16492,-248,-3180,-896,-36,153
314992,1951,1148,759,16588,-268,-3120,-864,-58,43
315002,1955,1143,760,16572,-308,-3144,-848,-84,136
315012,1951,1141,757,16584,-272,-3056,-880,-19,239
315022,1950,1139,760,16624,-276,-3088,-880,6,287
315032,1955,1140,757,16536,-296,-3196,-896,-53,277
315042,1955,1135,760,16564,-276,-3108,-864,-184,199
315052,1955,1131,755,16564,-260,-3084,-880,-207,134
315062,1951,1135,758,16616,-360,-2956,-880,-155,105
315072,1952,1139,759,16580,-448,-3128,-864,-82,157
315082,1955,1146,757,16644,-400,-3132,-880,-5,193
315092,1956,1142,759,16632,-284,-3036,-848,61,196
315102,1952,1135,756,16592,-188,-3156,-896,-8,231
315112,1955,1139,757,16536,-336,-3280,-848,-184,235
315122,1952,1203,758,16540,-296,-3068,-880,-235,179
315132,1954,1149,759,16508,-376,-3184,-864,-122,138
315142,1958,1181,756,16560,-296,-3036,-864,-9,208
315152,1952,1143,744,16756,-212,-2728,-800,45,253
315162,1955,1135,760,16544,-264,-3228,-832,-34,101
315172,1957,1145,760,16516,-384,-3204,-864,-266,101
315182,1919,1145,759,16476,-308,-2908,-848,-16,211
315192,1951,1135,760,16576,-188,-3224,-848,335,195
315202,1947,1139,759,16772,-60,-3368,-880,186,95
315212,1956,1148,758,16640,-200,-3196,-864,-341,98
315222,1957,1147,758,16584,-312,-2944,-848,-364,186
315232,1956,1135,747,16488,-484,-2960,-848,67,248
315242,1955,1138,758,16528,-500,-2920,-880,284,186
315252,1955,1107,757,16568,-632,-2980,-864,226,106
315262,1956,1124,759,16624,-668,-3224,-864,169,-3
315272,1952,1128,760,16532,-700,-3356,-880,255,-33
315282,1956,1129,759,16540,-604,-3108,-832,469,185
315292,1955,1123,759,16564,-508,-3288,-864,660,440
315302,1951,1115,761,16500,-376,-3372,-880,489,526
315312,1951,1109,761,16376,-572,-3192,-864,55,361
315322,1956,1100,762,16264,-1400,-3684,-864,-566,134
315332,1957,1100,777,16288,-2112,-3292,-848,-569,-85
315342,1956,1110,761,16304,-2224,-2632,-880,390,-128
315352,1957,1093,761,16484,-2096,-2796,-864,1537,234
315362,1957,1087,765,16444,-1972,-3304,-880,1784,778
315372,1956,991,760,16144,-1992,-3756,-832,1402,1018
315382,1955,922,761,15976,-2596,-3820,-864,775,904
315392,1951,805,763,16068,-3388,-3800,-848,289,521
315402,1951,812,773,16024,-4408,-4340,-896,11,70
315412,1951,927,776,16040,-5208,-4340,-896,-585,146
315422,1951,1064,779,16468,-6232,-4880,-880,-1041,221
315432,1957,1302,774,16644,-6772,-4812,-864,-1994,438
315442,1957,1162,763,16860,-7304,-5928,-896,-2964,549
315452,1952,1325,760,17436,-7948,-5384,-880,-4971,825
315462,1955,1949,750,17316,-7156,-2352,-848,-6444,2262
315472,1951,1885,740,17332,-5216,1020,-864,-5781,4748
315482,1952,1290,739,17708,-1864,2880,-880,-3486,6317
315492,1949,619,741,17512,1388,2312,-848,-738,5259
315502,1952,774,743,17344,5576,1808,-864,2239,3119
315512,1957,938,745,15272,8344,2480,-864,3931,1221
315522,1960,995,755,13140,9584,60,-864,4708,1199
315532,1949,1011,776,10560,7500,-5096,-864,872,1583
315542,1960,1016,752,9404,6824,-2792,-864,-3703,2314
315552,1951,1019,750,11296,7864,96,-864,-3984,1555
315562,1945,1023,759,14416,7916,-2576,-832,-2497,-3021
315572,1951,1023,751,17520,6104,-6936,-880,-5064,-7821
315582,1959,1031,750,18256,1036,-7356,-848,-12956,-8956
315592,1949,1020,757,17104,-2480,-1756,-864,-20332,-3528
315602,1955,1017,759,19024,-3736,5328,-848,-19646,3335
315612,1955,1020,756,19528,-5004,3076,-848,-10882,4616
315622,1957,1019,751,16904,-6956,-2628,-832,-3102,1891
315632,1957,1031,740,13348,-7212,-3456,-832,1006,523
315642,2008,1037,719,11988,-3208,-1112,-880,5271,451
315652,1964,1036,729,12640,1972,-3744,-832,11522,-1356
315662,1948,1037,767,13732,4856,-9036,-880,14324,-5067
315672,1951,1023,775,14792,7340,-11060,-848,11812,-6649
315682,1950,1035,749,16412,8324,-13164,-832,6458,-6643
315692,1949,1039,745,17892,8360,-14564,-880,-1339,-4760
315702,1951,1037,765,18280,7532,-10168,-848,-8302,551
315712,1955,1037,778,18008,4620,-5288,-864,-10845,7121
315722,1951,1039,773,16484,2776,-1792,-896,-9948,12767
315732,1956,1041,759,15944,2748,32,-848,-4588,14680
315742,1957,1041,731,15012,2560,420,-864,596,12287
315752,1959,1037,751,14064,5000,1212,-864,4208,8162
315762,1957,1041,763,14144,5840,-1248,-880,5484,3154
315772,1951,1048,763,13688,6744,-2056,-848,3746,-27
315782,1951,1041,782,14516,7800,-908,-880,2462,-428
315792,1951,1044,773,15308,8276,-744,-880,2071,-117
315802,1955,1045,766,16904,9752,1212,-896,2150,751
315812,1955,1044,750,16560,11448,304,-848,2486,1388
315822,1955,1045,748,16264,12860,-412,-848,2229,1469
315832,1955,1083,779,15944,12848,-388,-864,678,1094
315842,1949,1043,776,14432,12160,-160,-880,-1048,1326
315852,1957,1047,791,13976,11856,1544,-848,154,1285
315862,1955,1045,766,14176,10656,1576,-896,3036,-481
315872,1960,1047,765,14568,12288,1852,-832,5252,-1742
315882,1957,1041,781,15320,14464,748,-848,7783,-3586
315892,1947,1049,781,15428,15472,-652,-848,8113,-4563
315902,1948,1050,730,14668,16644,-2388,-864,6688,-2462
315912,1959,1044,696,15928,18020,-3304,-880,5592,-1451
315922,1978,1049,715,15760,18372,-2732,-864,6162,-1146
315932,1948,1050,755,16508,18076,-3352,-864,6442,-1186
315942,1947,1059,700,16060,18040,-4676,-880,5295,-425
315952,1919,1047,751,17792,20348,-3756,-864,5808,-262
315962,1918,1053,789,18676,23272,-3624,-832,8964,-1751
315972,1929,1049,732,21648,26280,-7916,-880,10191,-4871
315982,1963,1045,786,23176,27364,-8272,-864,6399,-4834
315992,1981,1039,803,30164,26764,-9236,-864,1148,-6340
316002,1971,1069,761,32767,22056,-8584,-848,-1617,-11825
316012,1974,1063,738,32767,14428,-5236,-880,-5859,-14166
316022,1977,1060,665,32767,10160,-3968,-832,-6535,-8866
316032,1951,1061,575,32767,5928,-2532,-848,-3011,-698
316042,1886,1023,543,32767,3352,-1868,-864,1866,8161
316052,1848,1048,845,26932,4920,-5320,-832,7025,14385
316062,1913,1043,1045,14608,5032,-12748,-880,5950,17960
316072,1979,1141,713,7932,-968,-17764,-864,-6225,23413
316082,2029,1147,439,5076,-10432,-14600,-864,-26649,29151
316092,1979,1643,439,6104,-28152,-7528,-880,-32768,23834
316102,1958,2079,693,8672,-32768,-884,-832,-32768,6746
316112,1973,1484,861,4652,-27332,15968,-896,-32768,-11362
316122,1939,1048,892,6432,-30680,14840,-848,6466,-2880
316132,1917,303,937,17260,-22076,12824,-848,31823,-3104
316142,1965,133,947,6528,-7032,-5476,-864,32767,-1188
316152,1967,681,862,-3000,236,-3372,-848,24774,7623
316162,1955,1211,819,2172,1408,-22644,-864,30036,1803
316172,1946,2110,729,4516,240,-24688,-832,14509,2176
316182,1948,1790,692,1036,-852,-448,-848,-2204,6828
316192,1955,1654,739,-900,-184,14400,-864,-3164,15577
316202,1941,1151,731,-5044,844,-5768,-864,-2991,9916
316212,1945,1227,697,-3432,968,2720,-848,6094,5847
316222,1947,1076,738,-80,-1436,60,-864,3159,2984
316232,1961,1333,735,1744,4596,-7788,-864,6147,-2448
316242,1957,1493,747,3204,1124,-6056,-848,-1222,-255
316252,1956,1625,757,1432,1204,740,-848,-4451,1598
316262,1956,1591,761,-312,880,3100,-896,-3823,1983
316272,1958,1417,773,-152,848,6452,-864,-2305,236
316282,1959,1407,777,1400,2244,4240,-864,-1493,2503
316292,1947,1119,787,272,1864,2692,-864,-156,2661
316302,1960,1208,779,380,1092,1032,-864,628,1789
316312,1947,1317,773,1188,-184,-1708,-864,-1290,1486
316322,1959,1481,765,608,-1420,-3392,-864,-4144,443
316332,1956,1572,761,924,-2180,-2364,-880,-5772,-2314
316342,1955,1671,766,2136,-2872,-1784,-864,-6963,-3973
316352,1945,1657,773,3268,-3720,-1732,-864,-7448,-4347
316362,1941,1628,765,4216,-4732,-2588,-880,-9042,-4819
316372,1947,1335,733,5372,-5056,-668,-880,-10422,-3005
316382,1963,768,762,4912,-6692,-1484,-896,-11826,-385
316392,1951,549,798,4668,-8524,-2576,-896,-12891,3032
316402,1957,1141,775,5872,-10424,-1612,-864,-13117,5121
316412,2023,2443,859,14960,-10884,256,-864,-10382,5018
316422,1655,0,620,30464,-17056,-32768,-864,-15668,3995
316432,2491,2511,891,32767,11580,11812,-880,-7966,-17732
316442,2011,2134,1127,-13804,-9124,-30120,-896,32767,-29150
316452,1764,2013,348,20580,15328,-32768,-880,32767,-26491
316462,1866,1955,121,32767,30404,-9288,-880,32767,-10343
316472,1845,1876,1390,21908,18908,32767,-896,32357,-24421
316482,2067,1869,860,32767,32767,-6116,-896,-1496,1586
316492,2091,1815,889,24056,22568,-15520,-880,-28472,1353
316502,1967,1781,1158,4756,868,-12708,-896,-32768,6839
316512,2108,1764,809,32767,15796,2476,-896,-32426,5607
316522,1999,1723,878,32767,11784,14160,-896,-4478,-16122
316532,2031,1720,763,32767,12252,-7068,-896,11816,-21751
316542,1992,1702,815,29096,18124,-6828,-912,17049,-8982
316552,1979,1688,851,22460,24048,528,-880,19559,11588
316562,1981,1679,923,19472,26716,-1608,-896,16160,30019
316572,1980,1657,955,16268,19072,-8256,-896,6784,32767
316582,1997,1641,980,13992,11756,-9132,-896,-10596,32767
316592,1999,1631,955,11108,10372,-524,-896,-18720,22520
316602,2001,1620,893,13152,9252,8604,-864,-10574,7717
316612,1997,1611,853,13800,9208,7152,-880,18,-9778
316622,1994,1596,887,13932,9360,2964,-896,3777,-17754
316632,1993,1589,895,14440,10160,524,-880,3801,-16493
316642,1989,1589,905,18920,12176,-2292,-896,3097,-14145
316652,1981,1578,911,17732,11044,-3636,-880,-2751,-7275
316662,1993,1574,913,15820,13164,-1620,-848,-5960,3200
316672,1993,1567,887,15076,11660,-1732,-880,-2393,7135
316682,1993,1559,871,14932,8832,-1772,-896,-2268,7935
316692,1995,1555,887,13996,7248,-808,-864,-5399,6921
316702,1995,1547,921,14168,6752,496,-896,-5267,3103
316712,1993,1533,901,14016,6244,116,-896,-2616,-2130
316722,1993,1566,884,14104,6268,-660,-864,934,-6444
316732,1991,1526,879,14924,6444,-3832,-880,2130,-8374
316742,1989,1523,875,16548,7628,-4956,-912,408,-7541
316752,1983,1515,889,17320,7616,-4664,-912,-1674,-4894
316762,1983,1510,889,16280,7164,-2652,-880,-3514,298
316772,1991,1506,883,15172,6236,-2316,-896,-2811,4319
316782,1993,1500,879,14864,5212,-2724,-880,-1144,4780
316792,1989,1498,877,14444,3944,-3132,-880,-816,3297
316802,1991,1494,873,14332,3276,-3148,-896,-524,876
316812,1989,1491,875,14444,3352,-2564,-896,406,-1355
316822,1989,1485,871,15028,3644,-2356,-864,2141,-2395
316832,1981,1481,875,15532,3404,-2988,-864,2332,-1696
316842,1981,1479,876,15864,3352,-3044,-896,105,837
316852,1982,1469,887,16524,3656,-2260,-880,-1409,2589
316862,1981,1466,887,16564,3284,-988,-880,-1425,2821
316872,1988,1464,885,15620,2180,-204,-880,-1032,2841
316882,1983,1461,883,14256,2220,544,-880,-502,3251
316892,1981,1459,889,13812,2648,1004,-896,996,3083
316902,1981,1455,876,15292,2884,1508,-880,3120,996
316912,1959,1451,893,14552,2648,-388,-848,4197,-1310
316922,1981,1449,921,14120,3132,-668,-864,4810,-2360
316932,1979,1445,959,14884,5060,408,-864,7136,-3183
316942,1981,1439,974,15140,6752,404,-896,11290,-3287
316952,1983,1436,904,16892,9980,-348,-864,14016,-2314
316962,1974,1435,904,17580,15480,-2448,-896,18004,-2708
316972,1960,1433,830,19324,19848,-3784,-880,19753,-3286
316982,1976,1422,762,21336,25596,-5940,-880,16804,-2389
316992,1979,1420,751,22960,28204,-8808,-880,10959,-1603
317002,1999,1434,813,25040,28380,-6864,-848,2086,585
317012,1990,1419,813,25652,27212,-5392,-896,-117,-30
317022,1995,1416,841,32136,25664,-3764,-880,3451,-3223
317032,1989,1419,804,32767,23852,-5176,-896,4614,-9355
317042,1989,1417,763,32767,20704,-4260,-864,1425,-9148
317052,2004,1417,721,32767,19112,-2288,-864,1824,-3436
317062,1965,1405,613,32767,15636,-2336,-880,4048,4495
317072,1955,1414,535,32767,12920,-4236,-912,4671,11407
317082,1877,1403,969,26564,11132,-7988,-864,6321,14966
317092,1973,1383,1404,14600,7864,-16484,-912,4118,16997
317102,2009,1394,813,9460,4100,-17784,-848,-8581,21908
317112,1993,1398,453,6276,-6412,-16836,-928,-30871,30877
317122,1983,1394,543,2080,-25820,-7880,-896,-32768,30187
317132,1999,1395,805,10620,-29600,-1704,-864,-32768,18247
317142,1999,1384,846,-9956,-32768,8020,-864,-32768,253
317152,1975,1619,907,-20692,-32768,2912,-880,-20522,1376
317162,1915,1621,909,18548,-27460,25480,-864,20935,-1686
317172,1946,790,977,15984,-16096,27284,-864,32767,-8675
317182,2016,1163,1017,-312,1736,-12764,-912,32767,-1662
317192,2009,1368,909,-9836,-13900,32767,-880,32767,-1630
317202,1963,1364,831,6956,7360,-29152,-896,29865,-2718
317212,1990,1371,739,6664,4156,-21980,-864,11941,-1620
317222,1965,1336,739,2144,6608,3688,-896,1390,313
317232,1957,1366,747,0,6368,18584,-864,6772,7535
317242,1963,1295,796,652,3336,18640,-896,7729,504
317252,2005,1293,795,1388,-992,-6060,-896,-891,1329
317262,1975,1355,782,2948,-584,-7012,-864,-14699,3732
317272,1977,1325,800,-56,-1720,-3712,-880,-25044,5723
317282,1977,1340,821,-268,-1936,2064,-880,-24771,6017
317292,1999,1257,825,-2876,-2260,276,-896,-17663,3847
317302,1979,1363,815,-552,-1680,3312,-880,-8729,755
317312,1980,1321,821,208,-2736,2040,-880,-910,1219
317322,1977,1341,819,532,-2876,508,-864,4221,1066
317332,1980,1375,819,1204,-2292,324,-896,5268,981
317342,1976,1339,813,1516,-1452,-76,-864,4577,1217
317352,1975,1316,815,1392,-952,492,-896,3837,898
317362,1974,1272,815,1648,-628,132,-864,3421,142
317372,1973,1209,806,2100,-1228,-1204,-864,2779,-783
317382,1977,1176,796,2980,-2252,-2980,-864,1012,-1697
317392,1977,1015,810,3988,-4208,-4736,-880,-2692,-2468
317402,1967,1237,824,5140,-6560,-6016,-896,-6836,-3151
317412,1966,1463,839,5444,-9412,-6352,-896,-10819,-3555
317422,1975,2130,901,10724,-10736,-880,-880,-12441,-313
317432,1852,1628,648,24280,-18040,6484,-880,-11142,-688
317442,2069,543,821,32767,-13740,11244,-864,-22688,-2350
317452,2077,1650,1189,15220,5888,23512,-880,17214,-8129
317462,1967,1885,1081,-5992,-2512,-32768,-928,32767,-12841
317472,1785,1886,349,17236,6084,-32768,-896,32767,-11940
317482,1961,1911,37,32767,32767,17988,-864,32767,20791
317492,1949,1877,1383,32767,32767,6944,-896,32767,9404
317502,1945,1829,1029,32767,32767,-9332,-896,-18302,7486
317512,1909,1771,1011,21040,21396,-1748,-912,-32768,7973
317522,2021,1766,1173,1588,16532,-10256,-880,-32768,7112
317532,2060,1741,1212,22380,19856,6568,-896,-24384,-1812
317542,1973,1703,884,16844,17304,-29200,-880,-11400,-20279
317552,2019,1701,652,20512,18384,5012,-928,10519,-27115
317562,1975,1704,823,23292,15036,-1416,-896,7224,-17864
317572,1959,1673,937,29120,20512,-7492,-912,-1754,-12394
317582,1973,1655,953,29116,16960,-7400,-928,-8918,-7809
317592,1957,1644,884,32767,11824,-8428,-896,-13378,-9045
317602,1963,1628,1017,32767,6324,-3340,-912,-20408,-12303
317612,1971,1619,1113,27232,3016,8348,-912,-20400,3027
317622,1977,1611,953,12604,8168,10208,-896,-5608,22658
317632,1982,1613,824,1704,13356,-120,-880,15911,30910
317642,1967,1593,860,4448,17088,-4128,-896,32767,23613
317652,1955,1587,974,16652,13732,-3760,-896,31197,16736
317662,1957,1575,1005,19368,15816,-14724,-880,9569,3939
317672,1964,1575,982,20700,20404,-7720,-864,-11184,-15043
317682,1967,1564,953,14712,14232,-584,-896,-20384,-16592
317692,1971,1559,958,8672,13408,-4324,-912,-18864,-11765
317702,1967,1549,943,15084,7144,3296,-912,-15543,-6973
317712,1968,1530,923,17688,6292,4100,-880,-7373,-558
317722,1967,1559,923,18096,4408,3224,-864,552,4722
317732,1959,1531,941,18388,4736,2880,-912,7639,6381
317742,1966,1527,923,16784,5976,1492,-880,11524,5596
317752,1967,1518,920,15304,7360,-128,-912,10251,4410
317762,1965,1515,927,13964,8676,-528,-896,7897,3491
317772,1966,1510,918,13352,9304,-108,-912,5174,2892
317782,1967,1508,916,13736,8568,-704,-912,2941,911
317792,1961,1495,919,14440,6748,-1692,-928,-315,-1784
317802,1965,1499,917,15452,5684,-956,-896,-4104,-3217
317812,1965,1493,917,15984,3652,-12,-880,-5468,-3077
317822,1965,1466,919,16160,2316,-1400,-912,-5923,-2605
317832,1962,1482,917,16088,472,-704,-912,-5714,-1581
317842,1967,1480,913,16220,-724,-248,-896,-4493,-485
317852,1965,1477,909,15896,-1664,-1024,-880,-2934,114
317862,1965,1471,905,15720,-2372,-1620,-912,-1707,-5
317872,1965,1467,907,15548,-2968,-2448,-912,-1009,-522
317882,1977,1463,905,15864,-3268,-2700,-928,-1082,-1291
317892,1963,1459,907,16332,-3268,-2640,-912,-1490,-1743
317902,1961,1461,917,16784,-3148,-2176,-912,-1746,-1472
317912,1963,1451,907,16948,-3276,-2220,-896,-2146,-729
317922,1965,1450,879,16672,-4160,-2888,-896,-2568,382
317932,1962,1447,887,16676,-3892,-2448,-880,-3238,1820
317942,1961,1445,888,15984,-4472,-1864,-912,-3333,2996
317952,1963,1440,876,15624,-5392,-2284,-912,-3534,3309
317962,1967,1439,874,15172,-7724,-3008,-912,-4536,2530
317972,1959,1434,919,14220,-10628,-4400,-896,-6938,1651
317982,1965,1431,939,13556,-7036,-120,-912,-7413,2755
317992,1967,1426,900,14080,-4096,4544,-880,744,3156
318002,1963,1430,872,16184,-328,1176,-896,9465,-2
318012,1959,1425,887,14596,232,-2484,-896,10672,-2634
318022,1959,1421,910,15396,3692,-3988,-896,6149,-1285
318032,1959,1420,916,14136,3620,-660,-896,950,3134
318042,1961,1418,926,13836,5044,-1060,-896,176,3533
318052,1967,1418,879,14676,6300,-1308,-912,5360,-958
318062,1963,1404,855,16160,7064,-1712,-912,7951,-4750
318072,1963,1397,876,16708,8184,-1800,-944,5323,-3830
318082,1961,1401,933,13776,9012,-1708,-928,2658,710
318092,1965,1401,877,12956,12828,2168,-880,5476,5477
318102,1963,1401,934,14100,15528,-496,-880,12679,4305
318112,1963,1404,921,16068,16004,-1344,-912,16357,1223
318122,1947,1394,883,18296,18956,-2756,-896,14556,-666
318132,1951,1395,797,17748,22124,-3948,-896,11997,-1743
318142,1947,1385,877,18344,25752,-2164,-928,11233,-1457
318152,1949,1387,828,20620,30048,-3352,-864,10914,-898
318162,1968,1406,859,21724,29860,-5568,-864,6916,-284
318172,1975,1382,845,23992,29864,-5136,-880,2028,-592
318182,1972,1383,873,24552,27916,-3088,-912,1657,-2118
318192,1973,1380,883,29520,27544,-2800,-880,4535,-4793
318202,1976,1379,868,32767,24888,-5196,-912,4594,-11899
318212,1961,1379,837,32767,19300,-3652,-896,-2241,-15663
318222,1975,1375,761,32767,16244,-2412,-912,-5310,-12356
318232,1951,1373,722,32767,11200,-1736,-880,-3924,-4224
318242,1934,1381,611,32767,7608,252,-896,-552,7223
318252,1881,1359,697,30264,6708,128,-896,4665,19141
318262,1929,1357,1215,17488,6820,-9788,-896,8455,24908
318272,1956,1367,1030,6680,320,-13920,-944,2274,30567
318282,2067,1380,607,4108,-10540,-11452,-912,-17086,32767
318292,1977,1367,584,708,-25208,-4832,-912,-32768,32767
318302,1957,1612,758,1012,-32768,2160,-912,-32768,24041
318312,1959,1580,813,-3000,-29884,1012,-912,-32768,3096
318322,1957,1415,935,-1792,-32768,6856,-912,-9330,-3438
318332,1933,985,1067,14396,-20384,20800,-896,32137,-18349
318342,1950,605,1073,13944,-6684,8764,-896,32767,-17894
318352,1981,1371,959,-1844,8688,-32652,-880,32767,-11357
318362,1981,1337,872,-7148,-1212,-32768,-944,32767,-5424
318372,1955,1371,827,8044,3192,-25256,-912,32767,3807
318382,1945,1369,822,7484,8128,-18404,-928,17626,6699
318392,1947,1362,812,4804,5656,18848,-912,10435,24188
318402,1955,1244,803,3508,9520,17512,-912,12040,23134
318412,1939,1245,789,-3428,5328,-5132,-880,11116,19072
318422,1961,1381,789,44,752,3040,-896,6226,7337
318432,1957,1261,803,-1700,2220,-5376,-896,-8470,1217
318442,1961,1299,837,128,288,-3240,-896,-19859,1690
318452,1963,1337,853,-1472,700,2704,-928,-17695,-1479
318462,1965,1242,853,-2764,-368,3164,-896,-14612,-5330
318472,1977,1213,837,-1836,-1264,6496,-912,-9517,-5514
318482,1966,1277,827,-696,-88,-636,-912,-6307,-4486
318492,1961,1339,837,140,608,96,-896,-4166,-3753
318502,1963,1355,829,1924,928,1452,-880,-2745,34
318512,1963,1340,831,688,1016,-596,-912,-3532,1938
318522,1959,1379,837,656,1416,-568,-896,-4701,1822
318532,1951,1175,854,760,1108,204,-928,-5759,2291
318542,1955,1055,871,64,864,-312,-928,-7221,2000
318552,1957,1003,875,616,104,-580,-896,-8443,286
318562,1963,615,857,500,-2700,-528,-896,-10660,-815
318572,1967,1544,871,380,-4432,-1568,-896,-15107,-2319
318582,1935,1708,874,3596,-4420,4860,-896,-15619,-2345
318592,2019,2180,953,7036,-3744,7880,-880,-10751,-1271
318602,1934,1037,613,22952,-5588,16912,-928,-5631,-11793
318612,1957,767,581,32767,-2580,7520,-896,-7769,-24472
318622,2057,1233,1011,11584,11120,-17488,-912,10410,-32768
318632,1903,1403,53,8272,12964,-26972,-912,27499,-32768
318642,1804,1421,169,30796,22812,32767,-896,31237,4384
318652,1880,1493,1611,32767,32767,32767,-928,26061,23900
318662,1993,1483,1325,32767,15588,-32768,-896,-10721,797
318672,1938,1468,1417,32767,5600,-2652,-896,-32768,-14606
318682,2057,1463,675,8484,-6708,18432,-912,-32768,-2012
318692,1995,1479,622,21112,7808,-5000,-896,-32768,-670
318702,1957,1485,551,26652,14192,-9136,-896,3646,-16703
318712,1961,1465,476,21984,4964,-1180,-944,20825,-25542
318722,1983,1459,598,32767,13172,14292,-880,16062,-13729
318732,1955,1470,628,29312,14808,-5116,-928,-288,-692
318742,1962,1466,631,18916,11768,-9520,-912,-8888,7579
318752,1957,1461,747,18384,9852,-2360,-928,-7312,10419
318762,1955,1451,726,27328,4624,-3664,-960,-1584,2820
318772,1945,1451,785,32767,-300,-5652,-944,-3714,-14092
318782,1957,1447,827,32767,1960,892,-928,-8521,-16271
318792,1962,1447,792,22552,5084,2464,-928,-2286,-107
318802,1960,1447,741,13092,11376,1496,-912,11811,13801
318812,1958,1443,767,8516,14852,2240,-944,21413,24757
318822,1957,1439,777,7080,17840,636,-928,25150,31689
318832,1955,1435,773,6900,15608,-4632,-912,16638,29784
318842,1959,1435,778,8624,16252,-7280,-912,4467,19324
318852,1955,1429,761,14068,12944,-7564,-960,-5272,1925
318862,1955,1423,745,16228,7276,-1988,-944,-13311,-10590
318872,1957,1415,765,6960,6328,-7160,-928,-16039,-21796
318882,1951,1408,773,18480,-1452,6512,-896,-21084,-26031
318892,1961,1415,759,18592,5624,3772,-912,-10987,-18545
318902,1955,1415,753,19676,4400,2148,-928,2467,-9541
318912,1956,1407,747,20384,4436,440,-928,9599,2413
318922,1957,1405,757,17652,5956,1456,-896,10170,13386
318932,1955,1404,751,13380,8608,1836,-912,11054,19403
318942,1957,1403,749,10320,10124,-56,-944,12706,19001
318952,1955,1399,755,11448,9512,-2684,-944,11257,12562
318962,1956,1395,733,13228,8436,-5624,-928,3961,2381
318972,1951,1395,749,15004,7648,-5456,-944,-5265,-8106
318982,1959,1390,757,16036,6592,-3464,-944,-10229,-14079
318992,1951,1385,749,18808,4040,1156,-960,-12576,-14967
319002,1958,1386,755,18892,4096,2820,-928,-9537,-9370
319012,1950,1385,750,19436,2844,1920,-944,-4543,-1636
319022,1957,1379,759,18788,2068,1912,-912,-90,5356
319032,1957,1383,756,17488,2852,1540,-912,3020,8713
319042,1959,1382,754,16380,3220,-20,-896,3728,7878
319052,1951,1380,755,14884,3344,-996,-912,2088,4351
319062,1951,1379,759,14052,3740,-960,-944,62,620
319072,1959,1373,763,13680,4076,248,-944,-1917,-1878
319082,1950,1368,765,13124,3964,360,-928,-2152,-2969
319092,1956,1369,757,14804,4144,92,-912,-1989,-3277
319102,1955,1368,765,16420,2764,-1080,-912,-3100,-3629
319112,1956,1366,755,17428,1440,-1248,-896,-4746,-3928
319122,1956,1364,751,17716,588,-368,-928,-5326,-3124
319132,1957,1363,753,17244,-276,-1100,-912,-4398,-2196
319142,1955,1361,755,16756,-720,-1008,-896,-2803,-1289
319152,1955,1358,751,16128,-764,-1380,-928,-1090,-357
319162,1957,1357,751,15820,-496,-2408,-928,-466,-19
319172,1957,1355,750,15820,52,-3268,-928,-1208,-332
319182,1957,1354,749,15924,492,-3756,-912,-2815,-723
319192,1950,1353,745,15600,-348,-4192,-912,-5118,-523
319202,1947,1349,764,14084,-1416,-3648,-928,-7371,1038
319212,1955,1348,757,12580,-1624,-700,-944,-6605,3807
319222,1979,1349,755,12768,-1572,-536,-912,-4038,5692
319232,1957,1343,750,13992,-1036,-1556,-896,-689,3321
319242,1950,1340,763,15508,-568,-780,-928,1389,-550
319252,1955,1340,774,16876,-568,-436,-912,272,-2148
319262,1949,1337,765,16480,344,808,-928,-793,-1189
319272,1951,1337,746,14876,1936,788,-896,703,1136
319282,1955,1335,774,13920,3980,892,-928,3875,2586
319292,1957,1335,787,13840,4964,1352,-944,6320,3780
319302,1956,1333,812,13868,7016,820,-912,8711,2876
319312,1960,1332,793,14504,11364,2416,-912,13311,321
319322,1955,1331,791,14932,13340,-1612,-928,18240,-4059
319332,1947,1329,815,16468,15724,-3812,-912,16543,-6517
319342,1947,1343,781,18396,20552,-6188,-880,13137,-6892
319352,1944,1323,683,18568,22884,-4816,-928,10461,-4796
319362,1942,1327,724,20144,25444,-3396,-896,9205,-174
319372,1949,1325,713,21444,26060,-4528,-928,8796,1887
319382,1951,1317,699,21720,26932,-3564,-896,7287,3764
319392,1967,1311,716,21484,28080,-2176,-896,8154,4843
319402,1964,1321,729,21768,27764,-3776,-896,9789,2861
319412,1971,1317,781,27220,28444,-4480,-928,8520,-1023
319422,1965,1323,757,32767,25360,-6436,-944,4953,-9768
319432,1976,1321,666,32767,20448,-5232,-944,-4549,-17534
319442,1939,1319,603,32767,15556,-3784,-960,-12396,-17385
319452,1951,1317,505,32767,10332,92,-944,-12567,-8222
319462,1904,1318,519,32767,6892,-1452,-944,-7585,5452
319472,1881,1297,923,29580,6568,-5040,-896,187,15643
319482,1919,1304,1119,18240,4984,-13060,-928,4353,19794
319492,1949,1309,761,10372,1732,-14012,-896,-2453,24224
319502,1992,1316,589,3920,-7280,-12004,-896,-18653,32767
319512,1967,1315,483,1492,-17852,-3560,-912,-32768,32767
319522,1971,1321,617,7124,-17408,-1148,-928,-32768,29649
319532,1960,1298,763,-1248,-22008,5652,-928,-32768,14187
319542,1960,1341,815,-816,-14108,-14100,-912,-7206,-4119
319552,1929,1311,849,5400,-27312,-14200,-912,9770,-5548
319562,1939,1415,935,7140,-15532,-12908,-896,19561,-13240
319572,1951,1135,934,10228,-3060,12160,-928,28082,-15760
319582,1968,1133,843,-5012,1012,-18928,-896,27166,-6002
319592,1976,1215,773,-5636,-6516,-30924,-896,32767,-167
319602,1945,1327,699,3236,1776,-22056,-912,23702,2132
319612,1951,1389,704,4352,3904,-13756,-928,13383,6391
319622,1941,1471,747,524,4492,408,-896,6643,7082
319632,1949,1417,688,4004,4340,11800,-880,8532,11449
319642,1927,831,728,-1372,-2900,2532,-896,6516,10496
319652,1956,1113,731,-888,-1084,-4052,-896,-2264,3121
319662,1963,1207,703,416,-4748,2636,-928,-14632,868
319672,1959,1290,745,1968,-2128,-3580,-928,-26157,1239
319682,1949,1382,765,1564,-892,-3768,-896,-27794,682
319692,1951,1339,777,576,-1424,-2392,-928,-21279,-3053
319702,1949,1223,777,2540,-2116,3296,-896,-12226,-3916
319712,1959,1309,759,3524,-1940,3912,-896,-5072,-1800
319722,1951,1302,750,1872,-3280,1732,-944,-141,-419
319732,1951,1391,761,2224,-528,480,-928,2444,1883
319742,1955,1225,775,1836,-392,1304,-928,2742,3324
319752,1959,1047,779,864,-156,1836,-880,1936,3742
319762,1959,1259,761,348,648,996,-912,1229,2905
319772,1951,1069,735,1188,640,576,-928,-417,1438
319782,1955,838,734,2192,664,-756,-912,-3812,-305
319792,1947,1593,763,2128,188,-1416,-912,-7731,-4043
319802,1955,1527,785,3172,-596,-1960,-960,-9492,-8478
319812,1956,1527,851,7320,-2236,-1912,-944,-12265,-10882
319822,1931,1371,741,17876,-4128,2796,-928,-15836,-12902
319832,1939,1083,632,30016,-4012,10184,-928,-29313,-19752
319842,2027,1240,535,32767,11248,1148,-912,-15380,-32768
319852,1961,1268,911,500,52,-7920,-928,7252,-32768
319862,1829,1257,845,14332,9996,-3856,-896,21901,-18353
319872,1896,1243,549,4348,11932,9308,-944,26321,7336
319882,1962,1246,731,32767,25572,9592,-928,28032,22037
319892,1977,1255,937,32767,20316,-32768,-928,-13669,-2101
319902,1927,1247,617,32767,22636,-10936,-912,-32768,-19303
319912,2036,1245,583,11712,-1096,22592,-928,-32768,-8399
319922,2025,1247,809,21344,-100,6900,-944,-29852,-2843
319932,1932,1245,601,32232,4380,-10168,-944,5405,-13505
319942,1961,1245,619,32767,-2848,-17460,-960,30769,-32768
319952,1919,1233,845,32767,3568,12672,-896,16888,-32768
319962,1917,1231,907,32767,9812,11464,-944,-11003,7041
319972,1978,1255,565,17456,21812,16088,-944,-3053,32767
319982,1980,1225,809,-4328,21748,10740,-944,23594,32767
319992,1959,1249,843,-9276,19132,9160,-944,32767,32767
320002,1947,1251,700,9212,14876,-12156,-928,17859,32767
320012,1919,1249,697,32767,10724,-13492,-944,-6421,12799
320022,1947,1238,861,296,11684,-15692,-944,-25314,-26139
320032,1955,1235,740,9832,11272,160,-928,-23256,-32768
320042,1959,1236,697,15364,8896,10496,-896,-17670,-32768
320052,1957,1243,715,19572,18800,10352,-912,-5146,-32768
320062,1955,1243,723,32767,14024,3788,-928,-14220,-32768
320072,1943,1239,755,29148,5192,3804,-944,-8293,-26774
320082,1956,1241,759,27816,5108,2104,-912,-209,-4538
320092,1947,1241,751,24104,5936,-304,-944,7279,15507
320102,1957,1242,745,18984,7964,-64,-912,11493,26998
320112,1951,1240,731,14392,9984,-2228,-976,14573,29632
320122,1946,1240,737,11896,10336,-4036,-928,13421,24789
320132,1947,1241,738,10632,10940,-4572,-960,8286,15910
320142,1949,1237,743,11468,11632,-3936,-944,2849,4292
320152,1948,1223,739,10668,9564,-4656,-928,-3694,-5904
320162,1951,1239,741,13620,9380,-3820,-960,-8443,-10909
320172,1951,1235,743,15212,8960,-3676,-944,-14258,-17402
320182,1948,1236,746,15860,5744,1288,-928,-13189,-15683
320192,1949,1234,747,18684,3760,2960,-944,-9644,-10993
320202,1949,1235,745,19440,3244,2208,-944,-3390,-4303
320212,1951,1235,747,18628,2532,932,-928,2253,2463
320222,1952,1235,745,17108,2540,-196,-944,5400,6872
320232,1951,1234,742,15532,2996,-1112,-912,5998,8104
320242,1949,1235,743,14380,2636,-1916,-928,5098,6874
320252,1949,1229,742,13612,2620,-2304,-928,3589,3629
320262,1949,1227,743,13756,2584,-2224,-944,1630,-310
320272,1950,1229,743,14084,1968,-2336,-928,-151,-3727
320282,1949,1229,761,15444,1132,-2264,-944,-1674,-5438
320292,1949,1227,744,16276,328,-2400,-944,-2983,-5126
320302,1948,1229,747,17040,-884,-2012,-928,-4025,-3458
320312,1949,1229,743,17584,-1476,-960,-944,-3652,-936
320322,1949,1228,744,17340,-2316,-928,-944,-1991,1041
320332,1949,1229,745,17036,-2968,-1668,-928,-650,1971
320342,1951,1226,740,16484,-2832,-1844,-944,160,1866
320352,1949,1225,742,16044,-2940,-2496,-912,354,1145
320362,1950,1227,740,15604,-2888,-3016,-960,95,243
320372,1949,1227,739,15668,-2516,-3340,-928,-89,-379
320382,1907,1231,743,16060,-2332,-3428,-944,-203,-432
320392,1949,1223,742,16356,-2500,-3532,-928,-534,86
320402,1947,1224,743,15712,-2272,-3112,-944,-727,1546
320412,1949,1224,744,15120,-1736,-2504,-928,-363,3196
320422,1949,1224,744,14496,-988,-1860,-928,727,4181
320432,1951,1225,743,14876,-388,-2064,-944,1753,3828
320442,1947,1223,741,16040,88,-3024,-944,1930,1784
320452,1945,1224,751,16676,752,-2308,-928,989,126
320462,1945,1223,759,15920,544,-212,-944,-859,1499
320472,1947,1221,746,14384,1120,1376,-944,-1579,5218
320482,1949,1223,751,13320,3548,1788,-928,1079,7165
320492,1960,1222,757,14576,4172,-352,-928,6163,4645
320502,1947,1223,759,16004,3156,-1256,-960,8156,-149
320512,1943,1222,758,16392,2856,-780,-928,5077,-1766
320522,1947,1205,781,15688,4856,-232,-928,3187,-1019
320532,1950,1215,791,14232,5868,2308,-928,5065,1168
320542,1951,1216,765,13040,9760,2624,-928,12163,2417
320552,1948,1215,755,12764,12880,-488,-944,18136,2125
320562,1955,1215,795,14720,16764,-2176,-912,20315,1866
320572,1943,1211,885,17832,18988,-1976,-896,16537,1765
320582,1949,1184,804,19456,20444,-3144,-912,9930,986
320592,1919,1212,686,19068,23196,-4684,-944,7715,-1892
320602,1946,1209,645,20584,25748,-2284,-960,9578,-3382
320612,1947,1213,663,22720,27308,-4040,-928,9805,-2800
320622,1939,1207,683,25044,26744,-5708,-928,6343,-2473
320632,1967,1211,683,28908,26064,-2976,-960,3475,-2028
320642,1955,1212,690,32767,24036,-2448,-944,4487,-4876
320652,1963,1215,699,32767,18892,-324,-928,2126,-5144
320662,1958,1213,651,32767,18144,456,-928,1764,-2912
320672,1947,1213,583,32767,15716,1708,-912,3965,1857
320682,1925,1215,465,32767,14736,3456,-944,4992,7905
320692,1945,1211,340,31628,14656,2856,-960,5121,13377
320702,1943,1204,652,24608,13216,-2492,-912,6016,14212
320712,1933,1203,1267,18080,10208,-9764,-912,2794,11973
320722,1909,1199,1123,14016,6184,-13100,-928,-8319,11014
320732,1993,1244,715,10344,196,-8988,-928,-22623,12596
320742,1983,1238,523,6104,-7924,-8024,-928,-32768,14398
320752,1960,1496,553,6812,-18892,-3468,-928,-32768,9129
320762,1949,1523,665,7132,-19560,-2348,-912,-32768,1244
320772,2002,1707,696,5872,-20588,8488,-944,-19021,-151
320782,1956,1901,727,26408,-6876,-32768,-960,-6926,5969
320792,1926,1436,739,18108,-14436,9856,-944,14528,3194
320802,1939,460,869,12280,-7660,10292,-912,24850,5358
320812,1961,239,916,3884,-696,-5708,-928,28614,11155
320822,1951,653,840,-1416,1172,-10104,-928,22777,7659
320832,1955,1291,782,672,-544,-12264,-928,27455,3573
320842,1948,1693,758,144,-1180,-12220,-960,14728,8110
320852,1946,1543,683,-732,2060,-2392,-928,4112,8874
320862,1939,1177,675,-1300,1804,484,-928,-520,6057
320872,1932,1033,695,-1104,1908,-2004,-928,-2897,262
320882,1932,941,703,-44,1452,-2216,-944,-5440,-3018
320892,1943,956,712,236,2884,-5336,-912,-10084,-2990
320902,1947,1020,721,812,288,-4028,-960,-15994,-1546
320912,1956,1095,729,744,-704,-428,-944,-18046,-389
320922,1951,1161,732,1296,-848,1568,-944,-17390,998
320932,1951,1194,745,1128,-2600,884,-960,-16859,1853
320942,1956,1253,748,1296,-3368,1624,-928,-13706,2032
320952,1956,1082,761,1584,-3788,2476,-960,-10052,2589
320962,1957,1065,776,2096,-3832,1704,-960,-7345,2302
320972,1963,923,779,3020,-4272,1592,-928,-5941,477
320982,1964,1259,765,3548,-5028,1788,-928,-6337,-702
320992,1956,1481,787,4076,-5636,984,-896,-7424,-2536
321002,1963,1611,759,4528,-5232,1824,-944,-7812,-2503
321012,1968,1197,723,3900,-6560,2280,-960,-7331,-2017
321022,1955,1163,711,4400,-7328,1424,-960,-9041,-1292
321032,1909,1352,669,5164,-7492,-2528,-944,-10611,-3524
321042,1915,1001,678,9612,-6296,-4088,-912,-10352,-9154
321052,1930,1997,685,16236,-3472,-3296,-928,-9211,-12759
321062,1927,1101,617,27520,-3856,-3164,-976,-6433,-19942
321072,1993,1226,779,32767,304,-8100,-928,-10366,-32768
321082,1932,1165,1163,25316,796,-9036,-960,982,-32768
321092,1972,1125,591,21332,3004,-1624,-912,15228,-23833
321102,1899,1129,185,27176,7832,-284,-960,22869,-11111
321112,1804,1115,597,32767,18872,-13096,-960,26793,-14848
321122,1775,1039,1172,32767,16500,-5900,-976,-13282,11118
321132,2109,1109,839,32767,5432,13840,-976,-32768,22752
321142,2043,1132,565,18696,3452,8768,-960,-32768,23316
321152,2021,1100,650,11812,1964,-1876,-944,-6901,18713
321162,2019,1107,627,12364,9516,7784,-928,26156,16253
321172,1940,1112,632,28340,6188,4532,-928,32767,1566
321182,1877,1078,697,21492,-6232,-32768,-944,32767,-30373
321192,1933,1105,779,32767,24628,-384,-992,2199,-26771
321202,1951,1123,731,13972,28512,-2544,-928,-12192,-1991
321212,1957,1115,853,4716,23172,-2944,-960,-3513,20751
321222,1939,1111,749,8588,11996,2624,-976,1512,32767
321232,1939,1112,739,21112,12940,-576,-944,855,26790
321242,1947,1113,739,19372,9536,-4824,-944,-6299,9364
321252,1951,1112,745,12308,6668,-868,-944,-10157,-2234
321262,1961,1109,741,9840,6860,2692,-944,-6740,-6487
321272,1955,1111,744,13008,7616,3960,-944,177,-8334
321282,1948,1111,731,16652,8444,2268,-992,6113,-8035
321292,1944,1113,735,19676,9372,792,-960,7582,-6904
321302,1944,1098,741,20152,9316,-828,-976,3996,-4169
321312,1945,1111,749,17760,8804,-2104,-928,-1287,-72
321322,1945,1113,735,16044,9884,-408,-928,-3003,3065
321332,1949,1112,741,14872,10108,248,-960,-908,3727
321342,1949,1112,730,14460,10044,-280,-976,496,2707
321352,1949,1115,738,14720,8772,-2392,-976,-1295,230
321362,1947,1113,731,14860,7564,-1692,-944,-4821,-1995
321372,1949,1113,741,15244,7720,1448,-976,-4930,-2873
321382,1949,1113,711,15888,7180,2164,-912,-842,-3875
321392,1949,1150,734,15636,7376,788,-944,2594,-3978
321402,1949,1112,731,16100,9092,12,-928,4605,-3158
321412,1949,1113,739,16368,9748,-2828,-944,4280,-2889
321422,1947,1115,739,16256,9436,-4380,-944,1345,-2536
321432,1947,1113,739,16040,9300,-3000,-960,-1444,-1667
321442,1949,1114,742,15740,8552,-2612,-960,-2340,-975
321452,1949,1115,788,15252,7488,-2228,-928,-1646,-733
321462,1948,1113,741,15648,6784,-1796,-944,-834,-619
321472,1949,1115,741,16156,5784,-2912,-944,-810,-1031
321482,1948,1114,737,16164,4576,-3184,-944,-2055,-1448
321492,1948,1115,737,16128,4220,-2104,-960,-3020,-1157
321502,1948,1115,739,16048,3236,-2212,-944,-2664,-1018
321512,1947,1115,741,15380,1688,-3404,-944,-2353,-1170
321522,1947,1114,730,15532,1344,-2188,-960,-1794,-903
321532,1948,1115,735,15780,416,-2792,-928,-1134,-759
321542,1947,1115,734,16180,-344,-3668,-976,-1456,-1018
321552,1949,1117,733,16216,-552,-3432,-928,-2157,-950
321562,1949,1117,739,16092,-1412,-3444,-960,-2805,-478
321572,1947,1115,738,16088,-2232,-3688,-960,-3586,-81
321582,1947,1116,739,16092,-3508,-3888,-960,-4088,103
321592,1947,1115,730,16400,-4136,-3708,-944,-4383,-91
321602,1939,1117,733,16624,-4432,-3384,-944,-3637,-391
321612,1949,1115,729,16372,-4628,-3584,-928,-2520,-105
321622,1949,1115,731,16284,-4696,-4156,-944,-1412,820
321632,1947,1116,729,16448,-4288,-4664,-944,-965,1773
321642,1949,1116,735,16272,-5116,-5452,-960,-1867,2537
321652,1947,1115,735,15868,-6624,-5864,-960,-3707,3108
321662,1943,1115,735,15860,-7264,-4612,-944,-5075,3771
321672,1946,1118,732,15088,-7316,-2396,-928,-4526,4906
321682,1945,1123,734,14052,-7028,-1436,-944,-1905,6086
321692,1947,1115,739,13612,-5992,-1720,-960,1491,6249
321702,1947,1117,740,13796,-4304,-1216,-928,4506,5304
321712,1948,1117,744,14680,-2820,-1944,-944,6113,3338
321722,1944,1125,738,16076,-2568,-2040,-944,5638,1192
321732,1944,1117,739,16084,-512,696,-928,4269,1429
321742,1945,1118,749,14912,2088,3168,-944,4520,4253
321752,1949,1118,743,14056,6276,3448,-944,6929,6381
321762,1933,1123,740,13788,8636,2564,-928,10057,5975
321772,1947,1119,751,13772,8280,-272,-960,8919,3825
321782,1931,1119,761,12708,6736,-2968,-896,1052,3228
321792,1951,1115,759,11272,5876,-1396,-960,-7643,3434
321802,1951,1119,778,13328,9076,7376,-944,-3228,1560
321812,1947,1118,805,15320,9632,7648,-928,9232,-3745
321822,1948,1134,800,13972,12652,1048,-960,17792,-6499
321832,1951,1119,850,14092,15328,-1360,-944,19511,-6432
321842,1943,1119,693,15692,18676,-2792,-944,16389,-3741
321852,1947,1115,805,17492,24540,-3000,-960,13509,-1028
321862,1920,1119,732,18668,26524,-4092,-928,12255,459
321872,1947,1115,667,19900,25376,-5392,-960,6458,1820
321882,1931,1117,647,20368,26660,-3516,-960,2839,1086
321892,1941,1119,623,18216,27776,-3192,-944,5893,-244
321902,1949,1119,703,19968,29300,-5476,-928,7267,-1190
321912,1959,1123,738,20628,29188,-5668,-960,5863,-1594
321922,1961,1118,763,23388,30416,-8340,-912,5015,-3967
321932,1960,1123,758,28580,28960,-8588,-896,3706,-7324
321942,1952,1125,742,32767,24900,-6156,-960,1349,-11945
321952,1942,1125,671,32767,19668,-5224,-976,-2278,-11400
321962,1940,1128,587,32767,15460,-1992,-944,-3687,-5687
321972,1933,1127,488,32767,11592,2136,-928,194,3125
321982,1946,1123,425,32767,8184,3252,-976,4920,11950
321992,1876,1086,728,28900,7156,96,-896,8589,16777
322002,1876,1107,1077,17024,6972,-6812,-960,6585,18305
322012,1962,1111,797,8796,8504,-9236,-912,-3642,22592
322022,2021,1131,621,3260,4340,-7864,-928,-17035,30586
322032,1950,1141,612,2732,-6820,-10520,-928,-30868,27454
322042,1949,1100,691,7628,-18508,-10704,-944,-32768,8972
322052,1965,1139,774,2016,-21656,-14036,-928,-32768,-5568
322062,1963,1241,763,10248,-13216,-13036,-976,-32768,-15995
322072,1901,1143,717,7764,-21796,8500,-912,-29105,-11932
322082,1903,1214,919,11176,-17456,21204,-896,7117,-9903
322092,1951,978,928,2904,-16528,-508,-944,28829,-2318
322102,1964,1253,803,916,-8436,-12104,-944,27405,5727
322112,1963,1226,745,-3964,-14692,-24600,-960,24372,9145
322122,1937,1699,669,1228,-2284,-9296,-928,18262,9866
322132,1929,1375,713,1652,-3688,8556,-912,14496,14137
322142,1927,835,777,-3164,-2392,-692,-928,11057,11579
322152,1939,710,747,-140,-1300,5724,-944,10973,6356
322162,1942,633,727,-2160,-1596,-4864,-944,7488,3150
322172,1955,841,712,4868,-1284,8468,-928,6043,-887
322182,1949,829,728,2980,2252,-10104,-912,-3088,-1623
322192,1946,979,728,2888,-1568,-2956,-944,-6598,-3490
322202,1955,903,729,3732,-1668,3904,-928,-7982,-1445
322212,1927,890,731,3632,240,2088,-976,-6498,1411
322222,1943,1045,733,1844,1188,1904,-944,-2092,4895
322232,1947,1016,739,2528,120,3064,-960,1716,6381
322242,1947,1095,741,1876,-1852,448,-928,2981,8071
322252,1949,1227,745,2388,-1988,52,-912,1700,8742
322262,1959,1214,747,1560,-2548,-3708,-928,-626,7500
322272,1958,1174,775,1580,-3996,-1948,-928,-4377,5351
322282,1955,1432,789,1732,-5440,-1804,-944,-7273,2378
322292,1942,1271,762,3532,-6776,1348,-960,-7831,1171
322302,1937,1100,744,5572,-7076,5692,-912,-6462,2365
322312,1938,1093,741,5612,-7600,384,-944,-4632,1469
322322,1957,1213,761,6436,-4628,2448,-960,1339,335
322332,1944,1004,763,6260,-5148,-760,-944,4714,1211
322342,1947,827,738,6240,-5940,-2424,-976,4564,2303
322352,1951,1990,875,7224,-5464,-2448,-992,5024,3751
322362,1864,2182,531,20060,-1664,15256,-960,6738,7177
322372,2092,520,447,32767,11092,8308,-944,2981,-1049
322382,1959,1435,735,23736,26892,-32768,-928,23907,-32768
322392,1909,1962,841,13412,32312,-19048,-960,32767,-32768
322402,1911,2098,487,17468,32767,-30172,-944,32767,-32768
322412,1772,2009,907,20772,14220,12604,-960,10426,-12938
322422,1807,1961,1251,32767,31780,15112,-976,-32768,7146
322432,2091,1967,361,32767,-5324,5236,-944,-32768,7208
322442,2003,1878,307,32767,-32768,-7092,-960,-32768,-32768
322452,1927,1850,1011,32767,-15900,6952,-928,-18074,-24837
322462,1981,1822,804,32767,-5272,13316,-944,32767,2610
322472,1966,1787,567,29732,-5100,25312,-992,32767,29217
322482,1966,1767,653,18384,19524,19424,-928,32767,32767
322492,1962,1764,728,-3436,30692,4840,-976,32767,32767
322502,1917,1740,798,-13072,31616,-4312,-944,32767,32767
322512,1932,1707,731,-672,32767,-32768,-976,6861,32767
322522,1929,1695,891,-27340,32767,-32768,-944,-32768,-10728
322532,1955,1661,995,32767,17744,-21440,-960,-32768,-32768
322542,1980,1635,685,32767,-16800,32767,-928,-32768,-32768
322552,1973,1641,759,32767,-7804,25456,-944,-32768,-32768
322562,1925,1651,680,26580,-10904,14824,-960,-32768,-32768
322572,1941,1645,796,30476,-16096,-236,-960,32083,-337
322582,1960,1626,730,30752,-9692,3960,-944,32767,32767
322594,1945,1625,699,27588,9308,100,-992,32767,32767
322604,1931,1619,713,21884,18608,-7556,-944,32767,32767
322614,1931,1614,762,12704,23436,-18556,-944,32302,32767
322624,1943,1605,799,3636,19200,-20692,-960,6559,32767
322634,1951,1598,749,10768,20988,-8868,-976,-11452,24189
322644,1948,1578,744,1108,11536,-11808,-976,-28365,4504
322654,1951,1575,741,11472,8996,-1084,-960,-30104,-17277
322664,1949,1571,731,15700,5388,9348,-960,-26513,-27124
322674,1949,1561,729,14244,2504,4440,-976,-18312,-30365
322684,1951,1553,719,32767,-6200,20388,-944,-19487,-32768
322694,1955,1551,749,20356,920,9728,-976,-4794,-30809
322704,1946,1548,700,21640,2904,2476,-976,11657,-16856
322714,1946,1544,751,23464,4556,-476,-992,20040,-2218
322724,1961,1541,751,21964,6960,236,-976,19928,10734
322734,1949,1533,743,18704,9876,-840,-944,16099,18388
322744,1945,1531,747,15124,10828,-3304,-928,12907,19571
322754,1945,1525,745,13180,11000,-4216,-960,9079,15028
322764,1947,1517,749,11976,9060,-3916,-976,3436,9112
322774,1942,1513,747,12252,7788,-3180,-992,-3504,1281
322784,1951,1509,744,13044,6328,-1232,-944,-8109,-5802
322794,1950,1507,742,13492,5600,-1824,-944,-9617,-10684
322804,1947,1501,739,16360,2988,-1528,-944,-10637,-13642
322814,1947,1497,747,17248,1568,-1168,-976,-10345,-12462
322824,1947,1495,745,18196,228,180,-976,-8139,-7794
322834,1940,1490,743,18488,-956,-288,-960,-4064,-2703
322844,1946,1487,744,17924,-1664,-1828,-992,-62,1393
322854,1947,1485,742,16560,-1568,-3100,-944,2498,3592
322864,1947,1481,743,15628,-1392,-3892,-960,3224,4034
322874,1945,1478,741,15040,-1244,-4632,-928,1914,3039
322884,1948,1471,741,14900,-1384,-4828,-976,-739,1439
322894,1948,1484,740,15264,-1736,-3900,-960,-3435,175
322904,1940,1469,742,16000,-2736,-3196,-944,-4958,-672
322914,1944,1495,741,16844,-4348,-3732,-976,-5305,-1152
322924,1947,1461,743,17156,-6424,-4408,-960,-6196,-776
322934,1947,1459,751,16348,-7768,-3832,-976,-6523,998
322944,1945,1455,744,15468,-8256,-2108,-944,-5465,3829
322954,1955,1447,735,15220,-7992,-1248,-960,-2424,5459
322964,1947,1448,731,15308,-7440,-2204,-960,613,4900
322974,1950,1447,750,14136,-6296,-2364,-944,2798,3682
322984,1947,1445,695,13780,-4420,-1292,-960,3702,3775
322994,1949,1440,742,14424,-3596,-244,-992,3764,4020
323004,1947,1438,734,15512,-2500,-84,-944,3799,2850
323014,1949,1466,729,16168,-1448,-716,-960,3656,1125
323024,1945,1433,743,16232,-1684,-2096,-944,2446,43
323034,1945,1431,749,15440,-956,-960,-976,-117,1275
323044,1947,1429,741,15188,1164,1752,-960,-308,4296
323054,1947,1429,741,14936,2896,764,-944,2600,5332
323064,1947,1426,744,14992,4108,-1720,-976,4563,3339
323074,1945,1423,755,14964,4156,-2348,-960,3174,2057
323084,1946,1419,756,14808,4676,-2024,-992,-1905,2757
323094,1946,1420,761,13928,5424,1316,-912,-4252,4547
323104,1951,1417,755,14056,6744,3156,-960,291,3978
323114,1949,1417,747,13856,6736,1220,-992,6812,1212
323124,1947,1408,776,13960,7916,-1052,-944,8023,642
323134,1951,1407,765,14092,11328,700,-960,8770,1425
323144,1949,1407,776,16412,15004,-20,-976,12993,-124
323154,1941,1403,778,16708,14252,-4616,-960,12637,-2259
323164,1947,1407,761,17956,17496,-2772,-976,6513,-103
323174,1938,1401,804,17176,19912,316,-944,5093,2802
323184,1948,1401,823,16024,19212,652,-976,6712,5162
323194,1945,1397,762,16692,18592,2468,-928,8797,6488
323204,1912,1391,726,17908,19088,1052,-960,9897,6536
323214,1949,1390,590,18556,23240,-792,-944,11952,2599
323224,1943,1389,636,19484,26596,-1416,-960,14191,-494
323234,1960,1389,683,21084,28816,-3216,-960,12115,-2665
323244,1949,1388,750,22520,30336,-2984,-976,6882,-2079
323254,1967,1387,756,23648,30052,-3408,-928,4947,-2678
323264,1943,1385,763,31732,27532,-6360,-976,3558,-7061
323274,1961,1387,709,32767,24212,-7856,-944,-1445,-16486
323284,1946,1383,677,32767,15500,-4332,-928,-11898,-22382
323294,1949,1365,592,32767,8820,4,-976,-16647,-14462
323304,1928,1381,597,32767,4272,992,-944,-11679,417
323314,1903,1371,619,32767,1892,4376,-960,-742,15044
323324,1871,1365,781,19588,5176,316,-960,13457,24490
323334,1956,1341,955,6812,3840,-9404,-960,17632,28798
323344,1980,1315,665,5812,-300,-7824,-960,8934,32767
323354,2013,1419,538,6008,-10144,-12112,-928,-18693,32767
323364,1929,1373,625,1156,-19940,-5920,-960,-32768,27877
323374,1934,1363,747,-536,-23036,-4228,-960,-32768,8807
323384,1943,1386,678,4336,-14728,-16468,-976,-32768,-8596
323394,1910,1343,761,-10664,-31328,4944,-976,-26613,-11591
323404,1903,1368,916,10020,-16632,15200,-960,10661,-20581
323414,1935,1333,924,15568,-8476,17836,-960,32767,-21098
323424,1975,1351,837,1672,-2108,-18220,-928,32767,-9164
323434,1995,1372,742,-912,-10116,28652,-960,32767,-2702
323444,1947,1517,718,11264,12084,-22056,-992,29351,4020
323454,1947,1829,726,7728,5744,-2024,-960,13409,12407
323464,1929,1291,796,808,3160,14856,-992,4789,16640
323474,1943,1213,739,-172,5972,4580,-944,4119,16323
323484,1930,1106,729,-3804,1288,428,-976,1417,8022
323494,1944,1157,714,-452,732,-3056,-960,-2325,3489
323504,1946,1182,712,1828,1868,-7664,-976,-9676,1017
323514,1949,1165,718,100,112,-2404,-944,-14013,-3035
323524,1971,1002,727,-960,-64,1324,-960,-15801,-6810
323534,1898,1245,743,1640,-708,2504,-960,-16154,-6273
323544,1949,1344,742,2692,-424,-24,-960,-15448,-4412
323554,1946,1378,741,2136,-1116,964,-944,-12881,-2501
323564,1947,1433,746,2284,-1292,1892,-976,-9931,-771
323574,1948,1399,755,2424,-1172,940,-960,-5777,1268
323584,1947,1301,743,2308,-1180,-124,-960,-3039,1994
323594,1950,1061,748,2328,-1320,104,-976,-2223,2695
323604,1951,583,767,1480,-1400,456,-976,-2638,3177
323614,1951,564,787,636,-2112,-416,-976,-3553,2130
323624,1951,1449,776,2012,-4056,-1016,-960,-5632,173
323634,1943,1567,748,4340,-5504,1300,-976,-9384,78
323644,1947,1981,799,3352,-5920,2128,-976,-9723,-1342
323654,1975,2409,819,11028,-5772,3360,-944,-3415,-6399
323664,1891,0,647,26284,-12752,7684,-992,-5986,-12816
323674,2025,1605,729,32767,912,-3256,-976,2395,-31529
323684,1907,2185,1190,-7928,-14436,-15368,-976,16386,-32768
323694,1747,2065,0,11116,-2144,-10672,-960,28501,-23425
323704,1945,2040,903,31216,20496,-16192,-960,32767,-8733
323714,1959,1967,1144,32767,24292,-12892,-976,32767,-26588
323724,1882,1891,375,32767,13856,-2064,-976,10820,-7346
323734,1973,1871,507,22916,18620,-5188,-976,-17910,14142
323744,2037,1827,799,4104,29820,-13908,-1008,-13561,21793
323754,1891,1789,920,7820,16976,-1132,-960,-483,24860
323764,2099,1799,521,32767,-10804,-14492,-944,-6586,12147
323774,1911,1716,820,32767,-7684,18888,-976,-32768,-32768
323784,1886,1725,687,29456,-15296,14788,-992,-32768,-28190
323794,1977,1734,459,19216,6612,8740,-960,-7568,20519
323804,1942,1710,904,-11388,21888,16348,-992,32767,32767
323814,1977,1678,807,4548,18524,10932,-976,32767,32767
323824,1909,1634,819,14532,336,-32768,-1008,32767,32767
323834,1932,1674,802,32767,22564,3964,-1008,-693,32767
323844,1931,1650,824,-2752,9156,-26712,-992,-26998,-4260
323854,1957,1635,800,2528,9012,-16000,-1008,-32768,-7791
323864,1967,1611,735,5108,13816,13836,-976,-31543,-14667
323874,1951,1622,776,10496,268,32767,-1024,-20952,-13894
323884,1943,1609,789,9624,7424,4468,-960,-7905,-25162
323894,1942,1598,761,24892,1344,2800,-976,-11011,-32768
323904,1955,1589,761,17924,140,3988,-944,-5989,-29857
323914,1959,1591,759,19496,7640,4148,-976,6123,-19908
323924,1960,1583,773,20400,10596,-384,-992,14949,-7544
323934,1944,1589,758,19500,12328,-3808,-928,14466,5101
323944,1947,1575,767,18320,14912,-4372,-944,8930,14432
323954,1951,1570,778,16824,15072,-6132,-1008,2925,15700
323964,1949,1563,776,13692,12760,-7184,-960,-3603,11884
323974,1949,1556,749,11584,10212,-4736,-992,-9326,6701
323984,1951,1549,763,11760,8356,-1024,-992,-10971,1409
323994,1947,1541,759,12100,6168,1064,-960,-8887,-3968
324004,1949,1527,763,14180,7160,2432,-960,-4601,-8689
324014,1950,1532,758,15884,7076,2048,-976,919,-10694
324024,1949,1525,758,16952,7000,-4,-960,3755,-9677
324034,1948,1522,765,17524,7400,-1040,-976,3859,-5683
324044,1949,1517,764,17692,8200,-1500,-1008,2510,-995
324054,1948,1513,765,17088,7888,-2252,-992,1272,1867
324064,1947,1509,763,15748,7052,-2516,-976,154,2711
324074,1949,1507,763,15048,6128,-1792,-1008,-1071,2555
324084,1949,1502,764,14652,5024,-2372,-960,-2234,948
324094,1949,1499,767,14788,3700,-2928,-992,-3966,-1472
324104,1949,1495,775,15136,2172,-2464,-960,-5705,-3288
324114,1951,1492,777,15540,984,-2328,-992,-6298,-4270
324124,1949,1485,759,16344,-684,-1572,-960,-5915,-4831
324134,1947,1490,757,16556,-1008,-1400,-992,-3756,-4356
324144,1949,1480,755,16064,-1296,-2044,-992,-995,-2870
324154,1947,1477,757,15984,-1220,-2848,-976,1102,-1364
324164,1941,1471,773,16380,-1600,-3936,-976,1337,-481
324174,1949,1467,764,16448,-2040,-5092,-1024,-142,-389
324184,1947,1463,790,16896,-2164,-4688,-976,-1272,-1007
324194,1948,1462,749,16724,-2380,-3108,-976,-541,-1662
324204,1949,1478,750,16836,-2144,-2744,-960,196,-1216
324214,1949,1459,751,16264,-2476,-3712,-976,-724,54
324224,1945,1451,751,16016,-3212,-4492,-960,-2674,1180
324234,1949,1451,763,16160,-4352,-3148,-960,-3990,1397
324244,1948,1449,755,16412,-4152,-1740,-976,-3204,1048
324254,1949,1459,751,16176,-4036,-924,-960,-513,493
324264,1950,1443,751,16052,-2012,344,-992,3386,122
324274,1949,1440,763,15600,596,-840,-976,5973,391
324284,1946,1438,763,14820,2388,-2220,-1008,5955,607
324294,1947,1436,764,14040,4380,-1448,-992,5093,1322
324304,1947,1435,761,12560,6436,-1728,-1008,4232,2459
324314,1947,1432,759,11752,7204,-2896,-976,2815,3034
324324,1947,1429,773,11796,6740,-4168,-928,737,2190
324334,1948,1420,765,12284,6812,-3716,-976,-1901,426
324344,1949,1421,765,11608,7504,-1528,-960,-1901,-264
324354,1947,1421,773,10832,6764,-2332,-960,394,-495
324364,1946,1419,752,11132,8448,-2860,-944,2883,-577
324374,1949,1416,759,11084,10552,-3440,-992,5532,-61
324384,1945,1416,750,12596,11480,-4200,-960,7221,477
324394,1947,1414,755,14940,11248,-7096,-976,6040,-745
324404,1951,1405,775,19980,12020,-6160,-960,3027,-2895
324414,1939,1403,786,24172,13372,-3696,-976,2887,-6044
324424,1943,1403,841,23428,13064,-5660,-944,3339,-6156
324434,1949,1403,826,21160,17240,-480,-928,5168,1658
324444,1934,1401,829,19744,20520,2016,-976,11250,9723
324454,1935,1397,871,19536,21232,2912,-976,13687,16038
324464,1944,1397,815,21188,23260,-28,-960,14104,16039
324474,1945,1449,709,23924,25988,-2284,-960,13190,8302
324484,1973,1396,637,27288,28172,-2444,-976,10323,-530
324494,1958,1389,635,32064,27832,-2888,-992,5394,-7952
324504,1961,1389,649,32767,27412,-732,-992,1595,-10752
324514,1959,1389,691,32767,25720,-64,-976,1715,-8368
324524,1957,1389,685,32767,22672,-1152,-960,1387,-3065
324534,1949,1385,647,32767,18396,-1812,-976,-274,3551
324544,1934,1383,562,32767,15020,-768,-944,-1487,10221
324554,1927,1374,503,26396,11380,-3732,-960,-875,15753
324564,1871,1367,729,16768,11496,-10940,-976,834,17438
324574,1939,1375,1011,6808,6320,-18012,-976,-2017,16200
324584,1959,1367,794,8112,-1668,-17200,-992,-17655,20265
324594,1984,1385,565,5408,-16536,-12440,-992,-32768,24504
324604,1976,1533,638,2732,-22540,-7304,-928,-32768,19460
324614,1965,1333,766,-100,-31388,12572,-960,-32768,5284
324624,1965,1416,710,10932,-15024,32767,-1008,-32768,4354
324634,1897,1374,869,5628,-32768,3796,-976,10648,-4788
324644,1911,1365,922,14348,-22848,8180,-960,32767,-12773
324654,1946,1331,936,10620,-7028,15520,-976,32767,-6566
324664,1959,1340,813,-5452,4880,-24028,-976,32767,4132
324674,1971,1334,793,-3500,-2480,-32768,-960,32767,2410
324684,1949,1497,730,8484,3640,-12084,-928,32767,6687
324694,1935,1819,709,4980,7136,-5552,-992,18549,8988
324704,1939,1576,734,2040,3308,2732,-960,10111,17402
324714,1941,1045,754,-2880,6068,1152,-976,5295,12586
324724,1949,1301,743,-916,3788,-1340,-960,7078,5766
324734,1949,1019,742,-848,-712,-1148,-960,-324,325
324744,1951,1183,717,-3656,-2368,-1232,-976,-4503,-3940
324754,1943,1261,747,2300,-1152,-3448,-976,-12922,-2167
324764,1951,1199,749,652,-480,-2384,-992,-15660,-3140
324774,1942,1135,751,352,-356,2312,-1008,-14581,-4987
324784,1942,1163,749,1756,-1572,3384,-960,-11530,-2589
324794,1947,1181,747,2140,-1176,2692,-976,-7297,-1579
324804,1947,1241,754,1976,-564,1636,-976,-4694,1436
324814,1951,1132,757,1372,-296,-884,-992,-3156,2103
324824,1957,718,767,1716,164,-1324,-992,-3956,1830
324834,1965,698,776,1504,-408,-3572,-992,-5986,844
324844,1947,1052,759,3528,-1780,-5476,-960,-10370,-1815
324854,1957,1371,747,5640,-2892,-2376,-960,-16044,-2402
324864,1967,1233,755,3372,-1724,-3808,-976,-19472,-3318
324874,1963,1124,795,5952,-3092,560,-976,-18782,-5825
324884,1951,1562,796,6896,-7432,-4868,-976,-20144,-8160
324894,1919,1911,791,9536,-13344,-5448,-976,-22182,-11165
324904,1887,1647,724,13148,-18044,-6132,-960,-25722,-10575
324914,1947,2001,588,20380,-18168,-292,-976,-20383,-9910
324924,1867,1019,610,32767,-10168,5616,-944,-10348,-18328
324934,1989,1211,735,32767,1548,3852,-992,15338,-21759
324944,2041,1187,1021,14924,3432,-8440,-992,32767,-24839
324954,1871,1215,540,8988,6272,-16212,-992,32767,-4739
324964,1952,1139,521,3424,13068,2916,-960,32767,23259
324974,1915,1128,613,3196,32767,-30268,-976,32767,32767
324984,1949,1177,1053,32767,32767,-31468,-1008,29418,32767
324994,1855,1178,774,32767,32767,-32768,-960,-16126,8880
325004,1974,1146,865,7716,17568,-14428,-1008,-32768,-17568
325014,2012,1134,815,15404,-2164,-5192,-960,-32768,-16991
325024,1991,1147,719,-5572,7040,-6196,-992,-32768,-15073
325034,2019,1157,571,32767,-32768,5416,-960,-31513,-32768
325044,1912,1135,739,32767,-30884,10540,-960,7035,-32768
325054,1885,1145,657,32767,-18404,7808,-960,17235,-32768
325064,1974,1159,443,26676,11648,22944,-1008,32767,23575
325074,1983,1159,903,5064,25912,16032,-960,32767,32767
325084,1980,1157,878,4976,32767,6016,-992,32767,32767
325094,1911,1157,775,19628,25636,-32768,-1008,32767,32767
325104,1901,1164,732,32767,32767,-32768,-1008,-8925,32767
325114,1939,1144,823,-12244,18300,-24820,-976,-32768,-214
325124,1959,1144,773,-788,10640,-5856,-976,-32768,-20787
325134,1960,1145,726,9268,5772,11632,-992,-32768,-26875
325144,1951,1135,710,10564,1460,3668,-1024,-22517,-29297
325154,1949,1145,728,20044,2296,4884,-976,-15472,-32768
325164,1941,1145,729,25140,2496,12028,-992,-3034,-32768
325174,1947,1145,721,23228,3344,4536,-944,11345,-26206
325184,1925,1149,741,21972,8012,1852,-976,22290,-8753
325194,1945,1150,745,21504,10856,352,-992,25256,8135
325204,1944,1149,741,19852,14356,-1560,-1008,20704,20799
325214,1943,1157,743,17184,16084,-4300,-976,13842,24973
325224,1943,1158,747,13984,14924,-5336,-992,6115,22297
325234,1945,1151,755,11896,12060,-4588,-992,-3533,15699
325244,1975,1135,741,10456,9812,-1940,-992,-10838,7828
325254,1955,1139,747,10228,6072,920,-960,-14435,-710
325264,1948,1149,734,10016,5080,-212,-992,-14372,-9284
325274,1949,1147,734,13820,3588,3932,-1024,-11521,-16193
325284,1946,1156,731,15504,2828,2892,-960,-6157,-18656
325294,1945,1148,727,17108,1756,1328,-976,-1264,-17796
325304,1943,1149,733,18312,2244,-1092,-976,2558,-13744
325314,1943,1148,717,18280,2828,-2576,-992,4102,-7314
325324,1940,1151,742,17832,3852,-3956,-1008,4354,-847
325334,1944,1151,743,16580,3780,-5860,-976,3022,3288
325344,1945,1150,744,15560,3620,-5568,-992,454,5020
325354,1944,1151,743,15264,2684,-5492,-976,-2898,4171
325364,1945,1147,739,14796,836,-5700,-992,-6758,1400
325374,1939,1149,735,14544,-344,-4296,-960,-9395,-1489
325384,1947,1149,733,14708,-1852,-3360,-992,-10172,-3227
325394,1947,1149,747,15520,-3524,-3428,-992,-9570,-4278
325404,1939,1150,731,16156,-4464,-3292,-992,-7765,-4630
325414,1945,1149,731,16932,-4832,-2900,-976,-5227,-3514
325424,1944,1157,734,17144,-4324,-2264,-1008,-1803,-1410
325434,1947,1136,733,17328,-3660,-2896,-944,1261,452
325444,1943,1149,704,16932,-3036,-4400,-976,2238,1341
325454,1945,1157,739,16088,-3352,-5712,-992,759,1869
325464,1944,1157,739,15752,-2852,-4784,-976,-1445,2136
325474,1944,1149,735,15880,-2736,-3928,-1008,-3195,2091
325484,1946,1148,731,15604,-3528,-4160,-992,-4208,1558
325494,1945,1157,735,14956,-4808,-4816,-992,-4837,1356
325504,1944,1149,740,14200,-4992,-3252,-960,-5117,2652
325514,1946,1157,743,13860,-4128,-144,-992,-3203,4792
325524,1949,1151,733,14936,-2816,956,-976,1020,5268
325534,1945,1157,737,16072,-1364,-124,-992,6042,2718
325544,1943,1157,744,16364,-612,-3416,-992,7855,-791
325554,1941,1151,740,16328,-816,-3564,-976,4780,-1601
325564,1943,1157,741,16748,1000,-1460,-992,1594,808
325574,1943,1156,743,14992,3316,-764,-976,358,4316
325584,1945,1157,740,13524,6504,908,-976,3954,6672
325594,1951,1160,739,14116,8800,-1216,-1008,8943,5817
325604,1949,1160,761,15016,6628,-5468,-976,9504,1968
325614,1942,1156,778,15952,1508,-7740,-976,-1354,1008
325624,1939,1149,759,15440,932,-1644,-960,-13928,4993
325634,1951,1160,789,13128,5652,7860,-992,-8037,8997
325644,1946,1159,733,13464,6480,4408,-944,8293,6605
325654,1943,1157,639,12832,8636,-3588,-992,19176,380
325664,1944,1156,655,13160,8956,-13276,-992,18918,-167
325674,1941,1157,731,15616,13368,-5556,-992,10567,3395
325684,1945,1157,790,14012,16768,-3228,-960,3545,7135
325694,1941,1159,762,13580,17444,-5068,-976,2819,6316
325704,1943,1160,745,15288,16400,-5112,-992,2348,3009
325714,1945,1159,841,15708,15424,2240,-960,1127,2430
325724,1961,1157,744,15992,14152,6520,-1008,4672,3175
325734,1929,1157,661,18016,16748,4796,-1008,9972,2967
325744,1946,1159,795,16188,19300,3268,-960,15597,2228
325754,1933,1160,713,15308,23744,2976,-976,19700,2093
325764,1917,1158,693,17656,28764,-1456,-992,20754,608
325774,1940,1159,725,19960,32704,-2392,-976,13704,502
325784,1949,1159,742,19772,32632,-3488,-976,5059,-868
325794,1959,1147,731,20940,31032,80,-960,1723,-3031
325804,1976,1147,747,24728,30048,-1484,-960,1998,-7764
325814,1963,1160,715,32767,25912,-5528,-992,955,-16376
325824,1959,1150,693,32767,24776,-7824,-1008,-5410,-23559
325834,1951,1163,667,32767,19348,-5332,-976,-12500,-23421
325844,1943,1163,626,32767,15904,-1844,-976,-11831,-14604
325854,1931,1162,605,32767,9284,-2308,-960,-9172,-1051
325864,1887,1147,661,32656,6872,-3544,-1008,-4595,12235
325874,1911,1147,952,19316,4996,-8924,-1008,425,19139
325884,1927,1147,933,8800,2168,-14716,-960,-1596,22050
325894,2024,1144,518,6332,-5316,-13976,-992,-15040,30353
325904,1983,1172,394,2148,-17024,-12340,-944,-32768,32767
325914,1961,1299,567,5524,-23376,-3764,-992,-32768,28929
325924,1959,1161,701,-2032,-29240,4920,-976,-32768,14087
325934,1989,1275,759,32484,9656,-31796,-960,-32768,4497
325944,1897,1061,871,8900,-26356,17928,-992,3860,-9304
325954,1915,1157,887,9388,-17432,724,-976,26910,-17611
325964,1949,1135,906,9788,-4064,-2876,-976,31849,-15833
325974,1941,1141,776,1932,6636,-6632,-992,21661,-1851
325984,1946,1163,812,-3536,-2604,-21276,-992,28614,-2779
325994,1943,1243,747,8720,8608,-20320,-992,16340,4048
326004,1941,1510,715,6368,1260,2280,-992,-203,15625
326014,1939,1381,751,572,2348,17876,-1008,-9384,21117
326024,1934,1167,726,-2136,-2412,9404,-992,-6087,22843
326034,1941,917,701,-4308,-1316,-5680,-960,-6223,13853
326044,1927,1061,693,-8192,1264,-2948,-1008,-3474,3770
326054,1945,949,699,-104,-2332,-2448,-960,-1290,-35
326064,1957,1020,709,-564,1248,-2500,-976,-122,763
326074,1949,1063,723,-1656,204,632,-976,2576,-4670
326084,1931,1353,732,980,-440,3572,-1008,1173,-3647
326094,1945,997,725,-1384,-4572,7896,-1008,2363,998
326104,1945,1076,729,580,2676,-4940,-976,295,-2110
326114,1947,1257,751,2592,1768,1552,-992,-595,-1839
326124,1959,1167,750,2672,2340,576,-1008,-2155,1118
326134,1946,1158,747,2116,1484,-984,-1008,-3981,1024
326144,1948,1229,748,1352,1080,-1224,-992,-5418,-135
326154,1943,1037,747,2360,-336,-1192,-992,-7418,-839
326164,1949,661,743,2448,-1244,-2648,-976,-9359,-1574
326174,1945,871,751,2468,-3304,-4572,-992,-11390,-4209
326184,1943,1013,729,5080,-5652,-4252,-992,-14321,-5844
326194,1931,755,738,4464,-6552,-3548,-992,-17187,-5049
326204,1958,773,749,5488,-8768,-284,-992,-18254,-4303
326214,1947,2253,799,7560,-9028,-2204,-1008,-15888,-2544
326224,1903,2027,696,22136,-9260,4480,-1008,-9636,-4175
326234,1937,0,755,32767,-15496,16504,-992,-16295,-8035
326244,2089,2165,869,30092,2548,2576,-1008,-1709,-23039
326254,1850,2183,1395,-5712,-12020,-23204,-976,22134,-23526
326264,1797,2085,0,17760,-1832,-12020,-960,30654,-14513
326274,1909,2041,291,27380,12824,10156,-1008,32767,1747
326284,1878,1960,1207,32767,32767,2940,-1024,32767,-9156
326294,2006,1891,619,32767,29164,-12532,-1024,1611,4741
326304,2037,1854,718,26024,28416,-5104,-1024,-14372,5576
326314,1975,1839,851,26296,17832,-15084,-976,-8957,-7139
326324,1855,1800,780,32767,8120,-12104,-1008,-26096,-13344
326334,2006,1771,841,32767,12664,15568,-1008,-27357,-6812
326344,1994,1759,727,32752,10084,5160,-976,-4667,1278
326354,1948,1745,683,22572,8740,4396,-1008,16180,10789
326364,1927,1725,639,13504,18572,12380,-1008,30111,23318
326374,1935,1711,743,5976,23688,9344,-992,32767,32767
326384,1947,1695,813,-1636,24060,-3064,-1024,16625,32767
326394,1955,1683,805,-6024,21200,-6932,-992,193,32767
326404,1949,1671,775,3724,27416,-10464,-992,-4672,27857
326414,1959,1670,759,-4592,21716,-21528,-1040,-16028,-1229
326424,1930,1645,719,31860,11832,-16960,-992,-22612,-32768
326434,1956,1629,766,32767,-11892,5276,-992,-32768,-32768
326444,1962,1625,1005,32767,22516,32767,-976,-32768,-32768
326454,1945,1625,737,20244,300,21264,-1008,-32768,-29384
326464,1947,1617,671,20108,2996,3312,-992,20633,7550
326474,1945,1605,734,20248,5956,-2748,-1008,32767,27657
326484,1935,1596,779,25544,11608,1180,-992,32767,32767
326494,1935,1594,779,23416,15240,-8964,-992,25857,32767
326504,1943,1593,779,8952,16704,-16232,-1008,3806,32767
326514,1949,1581,793,6736,15564,-7860,-992,-5188,20278
326524,1944,1571,755,8656,12824,-5472,-992,-11633,10484
326534,1955,1517,735,8948,10028,-2112,-1008,-10909,-2767
326544,1945,1572,755,12040,9196,-1600,-1024,-10795,-9787
326554,1947,1554,759,11460,11196,4500,-1008,-8014,-21298
326564,1945,1549,764,21076,6376,7124,-1008,-11204,-30519
326574,1947,1544,759,18928,5516,3736,-992,-7263,-25129
326584,1945,1533,750,20172,5528,1968,-1008,-283,-15852
326594,1942,1531,764,21676,6572,580,-1008,6662,-3846
326604,1948,1527,774,20660,6784,536,-992,9349,7727
326614,1973,1532,763,17776,7772,-628,-992,8864,14817
326624,1945,1523,761,15080,7232,-2156,-1024,7626,16403
326634,1946,1516,763,13460,6240,-3104,-992,4987,13373
326644,1945,1511,761,12760,5168,-2424,-1008,1289,7896
326654,1946,1508,760,12828,3704,-1912,-992,-2559,1104
326664,1945,1494,755,13308,2068,-776,-992,-5131,-4730
326674,1947,1499,759,14392,1288,-776,-1008,-6540,-8490
326684,1945,1497,763,15572,844,-384,-976,-5830,-9767
326694,1945,1493,759,16452,460,0,-992,-3425,-8782
326704,1945,1491,759,17620,464,-460,-1008,-399,-5953
326714,1945,1485,762,17840,352,-1496,-1008,2066,-2610
326724,1945,1484,757,17652,336,-2160,-992,2960,513
326734,1941,1481,759,16888,12,-2952,-1008,2333,2591
326744,1945,1477,758,15976,-292,-2796,-1024,831,3172
326754,1947,1470,761,15124,-564,-2812,-992,-767,2699
326764,1945,1543,759,14880,-1128,-2808,-1008,-2147,1270
326774,1945,1462,757,15580,-1888,-3080,-960,-3837,-522
326784,1947,1463,755,16728,-2424,-2012,-992,-5368,-1751
326794,1948,1422,755,16672,-3428,-2512,-992,-6087,-2145
326804,1943,1458,756,16584,-4656,-3352,-976,-6482,-1376
326814,1945,1454,755,16464,-6104,-3780,-1008,-6452,-139
326824,1943,1449,755,15920,-7532,-3268,-1008,-6054,1189
326834,1944,1449,751,15516,-7804,-1876,-992,-4348,2664
326844,1933,1446,751,14988,-7604,-2072,-1008,-1619,3374
326854,1947,1448,751,14460,-5792,-2148,-976,1504,3099
326864,1945,1438,749,14760,-4396,-2880,-992,3863,1629
326874,1943,1438,749,15144,-2828,-2676,-1024,4065,382
326884,1943,1437,754,15328,-1252,-2196,-1008,3884,136
326894,1943,1433,757,15048,-88,-2404,-1008,3145,863
326904,1945,1433,751,14536,1108,-2824,-1008,2601,1762
326914,1943,1432,747,14568,1704,-4140,-960,2370,1910
326924,1944,1400,756,14504,1600,-4880,-1024,1412,1363
326934,1944,1427,763,14784,2736,-1676,-1040,140,2181
326944,1955,1426,765,15872,4176,104,-1008,1297,3362
326954,1947,1423,757,16368,3628,-3340,-992,2127,2310
326964,1941,1417,803,14612,1396,-4064,-1008,23,2939
326974,1943,1383,806,13988,1884,-1144,-976,-1186,6532
326984,1951,1415,765,14216,3808,376,-992,4151,6890
326994,1955,1415,755,14020,7604,2464,-1024,14633,4804
327004,1948,1415,720,15152,11288,-1424,-1024,21878,2170
327014,1935,1401,702,14800,13732,-4640,-992,23201,1173
327024,1943,1403,761,15144,16700,-6144,-976,15914,3940
327034,1919,1404,1007,15928,21976,-3448,-992,9432,7322
327044,1939,1403,867,17180,22252,-1576,-992,6022,7421
327054,1949,1431,691,19208,21552,-2648,-1008,2209,3530
327064,1939,1397,636,16472,17512,2812,-976,503,3055
327074,1945,1395,645,16392,20984,5996,-992,7385,2653
327084,1945,1391,696,17572,25520,2540,-1008,18906,-1439
327094,1947,1387,698,21316,26596,996,-992,20493,-2877
327104,1959,1386,711,25180,30592,-3308,-960,14944,-4433
327114,1951,1382,745,27732,32767,-5716,-944,8791,-7033
327124,1950,1379,763,32767,31364,-4468,-992,3751,-9647
327134,1951,1418,758,32767,26752,-4312,-1024,-312,-10903
327144,1949,1386,728,32767,22740,-4456,-976,-3750,-10389
327154,1941,1383,664,32767,18888,-1764,-992,-2817,-5264
327164,1945,1381,607,32767,14688,1764,-1008,954,1977
327174,1911,1385,552,32767,11500,2352,-1008,4907,12500
327184,1943,1371,623,25496,10608,-760,-1008,7810,19401
327194,1867,1363,922,14860,10864,-7348,-1008,8536,22012
327204,1957,1356,878,7848,4612,-13420,-976,-1811,25235
327214,2013,1365,585,7304,-4224,-15844,-992,-23264,26597
327224,1983,1993,489,7628,-20984,-12496,-992,-32768,19870
327234,1957,2091,681,8452,-32768,-3284,-992,-32768,1046
327244,1977,1763,787,2668,-32768,824,-992,-32768,-12034
327254,1917,1043,809,10704,-29412,16832,-992,-11627,-2174
327264,1901,556,921,17796,-20236,19408,-992,32767,-6535
327274,1935,85,953,9328,-13924,-1916,-992,32767,-386
327284,1955,819,828,-1788,364,-12280,-976,32767,9584
327294,1957,1671,774,-428,-4732,-21752,-976,32767,5733
327304,1944,1931,698,7640,6700,-22668,-992,21228,7141
327314,1908,1745,717,-948,5572,-3592,-1008,10057,11142
327324,1949,1740,747,-916,7236,8664,-1008,6277,18825
327334,1925,1369,723,-2436,5392,-756,-992,4565,12074
327344,1943,1415,728,-1060,4792,-3552,-992,-2460,2660
327354,1947,1159,717,1048,-124,-4056,-992,-13059,-2719
327364,1952,1317,723,-72,384,-4096,-1024,-22927,-6995
327374,1945,1417,709,-172,1460,-1968,-1008,-27627,-7624
327384,1945,1429,755,28,456,276,-992,-25279,-7595
327394,1933,1681,741,832,680,4636,-992,-15950,-6380
327404,1944,1479,755,2104,420,6640,-1040,-6095,-2542
327414,1947,1583,760,1184,52,2628,-1008,111,1231
327424,1947,1644,745,1752,196,1724,-992,2465,2266
327434,1935,1609,739,932,1212,1740,-1008,1367,4177
327444,1947,1501,741,812,1344,-936,-976,-1921,3088
327454,1945,1486,749,668,1308,-876,-976,-4946,1314
327464,1943,1467,757,960,620,-1000,-1040,-7521,-708
327474,1945,1378,749,1448,-888,-1148,-992,-9162,-3367
327484,1949,1235,761,1648,-1744,-1452,-976,-10132,-5541
327494,1967,1085,745,640,-4168,-1640,-1008,-11617,-5467
327504,1959,616,746,1432,-4868,-1888,-992,-11632,-4163
327514,1939,831,767,4248,-5316,-1344,-1024,-10586,-2774
327524,1946,1757,763,4960,-4040,-1468,-992,-9643,-450
327534,1916,1941,841,6024,-4648,860,-1008,-5743,329
327544,1975,2278,763,18124,-9804,5944,-1008,-2361,-949
327554,1851,89,621,32767,-22724,1124,-1008,-21959,-12444
327564,2045,1899,1243,32767,-4220,-228,-1008,-19303,-31999
327574,1769,2041,683,-11040,-12240,-32372,-1008,6345,-31348
327584,2148,1990,41,32767,13316,-4388,-976,29575,-22373
327594,1604,1956,904,2712,-16212,-32768,-992,32767,-32768
327604,2135,1877,403,32767,-8564,7088,-1024,17803,-18169
327614,1963,1891,739,32767,15716,-11464,-1008,-32768,-644
327624,2035,1821,649,22316,25556,-12100,-1024,-17636,1273
327634,1965,1786,759,32548,20028,696,-1008,6528,11085
327644,1983,1788,789,32767,12612,6960,-1024,16,10321
327654,2019,1750,757,32767,1520,-12488,-1040,-32267,7092
327664,2023,1725,757,22312,3532,6580,-1040,-24326,10323
327674,2010,1709,747,12460,1124,13660,-1008,3607,18690
327684,1990,1703,729,7844,8452,4556,-1024,27917,25527
327694,1975,1688,761,-292,13840,10420,-960,32767,29087
327704,1979,1676,735,-2024,20456,4212,-1056,32767,32767
327714,1994,1659,758,-6184,21504,-15080,-1024,32767,32767
327724,1975,1644,766,-10952,12944,-22512,-992,19406,29039
327734,1995,1641,797,-1544,28528,-21372,-1008,-9684,30893
327744,1995,1643,814,-15300,26052,-20268,-1024,-29833,9842
327754,1992,1620,751,-5808,18984,-12504,-1008,-31663,-16960
327764,1932,1611,687,14448,4836,-12260,-1008,-32768,-32768
327774,1951,1651,737,32767,-22972,-29952,-1024,-32768,-32768
327784,2027,1572,843,32767,-19628,-32768,-992,-32768,-32768
327794,2018,1597,955,32767,-432,32767,-1024,-32768,-32768
327804,1929,1587,587,29408,-20060,2604,-992,11181,19766
327814,2003,1573,789,12028,-12308,7224,-1040,32767,32767
327824,2007,1603,722,19804,16664,-52,-1008,32767,32767
327834,2007,1595,715,21148,14296,-4284,-992,32767,32767
327844,1943,1567,745,27292,16712,-27924,-1040,32767,32767
327854,1961,1568,799,11952,27380,-9952,-1008,-7119,31743
327864,1997,1546,797,-2868,23800,-7080,-1056,-32768,12929
327874,2003,1541,803,-7620,17524,-6940,-1008,-32768,-8142
327884,1983,1528,725,5724,8900,4436,-1024,-26799,-28305
327894,1974,1523,733,23416,1568,16740,-1024,-22225,-32768
327904,1980,1519,696,14988,-6376,9628,-1040,-15094,-32768
327914,1981,1511,725,29908,-6640,8524,-1040,-26984,-32768
327924,1977,1511,763,27020,4468,12056,-1040,-11972,-32768
327934,1975,1513,745,22992,1568,3760,-1008,9617,-24772
327944,1980,1512,757,24476,6640,-2288,-992,26605,-2749
327954,1976,1509,749,24408,8464,-5464,-1008,28406,16061
327964,1976,1507,755,21768,11508,-4472,-1008,22403,28603
327974,1975,1502,746,17272,12956,-5024,-992,14906,32081
327984,1973,1497,755,12396,12476,-5692,-1024,9487,28654
327994,1975,1493,763,11208,9008,-6216,-1040,3029,20490
328004,1977,1487,751,10676,7160,-5432,-1024,-4313,11194
328014,1980,1481,746,12484,3540,-4216,-1056,-12752,-795
328024,2019,1477,732,10720,1104,-3800,-1008,-18573,-10176
328034,1978,1471,728,13560,440,-1592,-1024,-22214,-18137
328044,1975,1468,743,14900,-1672,508,-1040,-20778,-19409
328054,1975,1468,743,17300,-2240,556,-1040,-14981,-16316
328064,1972,1467,741,18616,-2764,-20,-992,-6580,-10779
328074,1975,1464,749,19180,-2720,-1092,-1024,1283,-3326
328084,1973,1527,745,18736,-1664,-2588,-1056,6205,3253
328094,1976,1455,745,17148,-1184,-5636,-992,6953,6914
328104,1967,1458,747,15052,-320,-5412,-1024,5122,7756
328114,1979,1469,743,13472,-220,-5076,-1024,2888,6610
328124,1975,1449,745,13272,-956,-4384,-992,-1,3623
328134,1975,1448,746,14332,-2128,-4428,-1008,-3051,-636
328144,1973,1445,741,14924,-3140,-3968,-1008,-5192,-4457
328154,1973,1443,733,15728,-3188,-2532,-1024,-5458,-5440
328164,1975,1437,734,16840,-3136,-1664,-1008,-3758,-4058
328174,1974,1439,739,17264,-4440,-2672,-1008,-1990,-1819
328184,1935,1439,749,17332,-4856,-2796,-1056,-865,380
328194,1973,1437,750,17088,-5316,-1556,-1024,113,2285
328204,1965,1431,755,16800,-5080,-1804,-1024,880,2992
328214,1973,1431,749,16036,-4504,-2640,-1024,1706,2087
328224,1972,1449,744,15828,-3960,-2924,-1008,2392,590
328234,1973,1426,743,16188,-3172,-1908,-992,3046,-730
328244,1972,1419,743,16696,-3032,-884,-992,3684,-980
328254,1973,1413,741,16992,-2300,-1924,-1008,3678,-264
328264,1971,1415,739,16916,-1592,-2764,-1040,3195,332
328274,1971,1419,744,16852,-1144,-2588,-1024,2916,615
328284,1967,1418,744,16680,-1348,-2224,-992,2229,923
328294,1967,1399,748,16632,-1948,-2108,-1056,1068,1125
328304,1961,1363,757,16384,-2604,-2292,-1024,-75,243
328314,1972,1399,735,16352,-2752,-1740,-1008,61,-665
328324,1967,1401,733,16848,-1708,-2232,-1024,1938,-1345
328334,2018,1402,747,17376,240,-2576,-1024,4715,-1575
328344,1967,1400,749,17352,1408,-3448,-1008,5542,-608
328354,1967,1401,751,17076,2176,-3308,-1008,5022,804
328364,1968,1395,755,16728,2288,-3212,-1008,2768,2399
328374,1971,1396,749,16136,2384,-3060,-1024,359,2821
328384,1967,1395,747,15696,2116,-2700,-1008,-1554,1948
328394,1968,1388,739,15856,1840,-1380,-1008,-2241,484
328404,1967,1385,740,16148,1392,-1024,-1008,-1813,-857
328414,1967,1383,735,16488,1204,-1444,-992,-1282,-1466
328424,1965,1381,729,17068,1396,-1520,-1008,-648,-1190
328434,1967,1383,735,17452,2008,-1440,-1008,498,-449
328444,1967,1383,732,17128,2752,-1840,-1024,1920,287
328454,1968,1375,731,17112,3460,-2944,-992,2248,889
328464,1965,1379,735,16772,3568,-3276,-1008,1287,1042
328474,1965,1373,745,16548,3376,-2560,-1008,295,786
328484,1967,1415,743,16332,2880,-2084,-1040,-881,305
328494,1971,1374,735,16304,2148,-2516,-1024,-2325,-100
328504,1966,1374,732,16284,1548,-2452,-992,-3306,-562
328514,1967,1390,731,16332,988,-1456,-1008,-2649,-955
328524,1967,1371,727,16564,540,-1352,-1008,-1279,-1238
328534,1965,1373,726,17004,600,-1824,-1024,-92,-1175
328544,1965,1358,733,17000,628,-2072,-960,802,-890
328554,1965,1367,733,17128,1008,-2032,-992,1654,-586
328564,1995,1381,735,16624,832,-2548,-1024,1827,-434
328574,1964,1390,731,16508,460,-3112,-992,801,-331
328584,1963,1380,743,16416,-84,-3012,-992,-443,-756
328594,1965,1383,741,16116,-1088,-3316,-992,-1584,-1359
328604,1964,1381,744,16252,-2252,-3324,-976,-2641,-1703
328614,1963,1365,740,16340,-3296,-3340,-992,-3576,-1567
328624,1966,1326,745,16380,-3892,-3312,-992,-3269,-1389
328634,1964,1312,749,16584,-4548,-3380,-1008,-2224,-1205
328644,1965,1325,747,16712,-4572,-3076,-1008,-861,-701
328654,1962,1319,743,16828,-4116,-3156,-992,785,-106
328664,1965,1323,743,16708,-3192,-3472,-992,2047,419
328674,1963,1369,743,16568,-2464,-3684,-992,2224,767
328684,1961,1349,743,16556,-1452,-3576,-992,1822,748
328694,1964,1321,742,16580,-380,-3320,-1024,1439,677
328704,1961,1354,739,16700,-312,-3232,-992,828,552
328714,1962,1351,733,16780,-44,-2936,-1024,-78,539
328724,1961,1341,737,16472,-92,-2400,-1008,-477,497
328734,1979,1335,741,16496,-112,-2444,-992,-543,497
328744,1964,1341,738,16500,-492,-2600,-1024,-593,553
328754,1961,1314,740,16600,-708,-2296,-1040,-487,149
328764,1961,1308,735,16528,-860,-2196,-1008,171,-72
328774,1963,1304,734,16684,-468,-2444,-992,901,-19
328784,1961,1319,741,16836,-184,-2524,-976,1404,86
328794,1963,1333,731,16720,136,-2640,-992,1522,192
328804,1962,1327,733,16644,60,-3096,-992,959,249
328814,1962,1336,737,16496,-212,-3092,-1008,-72,150
328824,1961,1339,732,16344,-808,-3360,-1024,-1071,-44
328834,2003,1331,731,16404,-1132,-3040,-1008,-1435,-194
328844,1961,1321,732,16392,-1416,-2844,-1008,-1154,-136
328854,1962,1307,733,16604,-1752,-3020,-1024,-867,94
328864,1961,1330,734,16732,-1616,-2996,-1024,-509,266
328874,1960,1331,735,16772,-864,-2608,-976,372,234
328884,1959,1307,733,16968,-336,-2508,-1008,1178,449
328894,1960,1307,735,16904,152,-2940,-1008,1001,774
328904,1961,1311,733,16608,280,-3092,-976,-16,1002
328914,1959,1319,737,16268,28,-3012,-992,-1114,864
328924,1959,1307,730,16128,-192,-2960,-1008,-1836,383
328934,1959,1303,731,16180,-732,-2888,-1040,-2053,-49
328944,1959,1291,733,16508,-1092,-2788,-1024,-1958,-125
328954,1958,1287,739,16672,-1092,-2332,-1008,-1427,180
328964,1961,1272,740,16776,-1088,-2476,-1008,-565,602
328974,1959,1305,739,16836,-988,-2780,-992,-138,807
328984,1958,1305,732,16624,-856,-2808,-1024,-23,753
328994,1961,1327,734,16656,-920,-2816,-1008,-165,473
329004,1959,1323,732,16672,-640,-2676,-1024,-315,233
329014,1959,1294,733,16728,-572,-2624,-1008,-157,57
329024,1959,1293,730,16864,-684,-2972,-1008,-200,95
329034,1958,1339,732,16828,-644,-3092,-992,-660,391
329044,1958,1297,731,16624,-704,-2908,-1008,-994,679
329054,1958,1299,730,16368,-960,-2916,-1008,-1099,714
329064,1959,1303,729,16360,-1072,-3140,-960,-1139,500
329074,1959,1323,728,16420,-1176,-2728,-1008,-1143,273
329084,1957,1307,730,16616,-1172,-2844,-976,-1022,230
329094,1959,1301,731,16776,-1044,-2720,-992,-941,335
329104,1957,1299,730,16808,-992,-2848,-1024,-857,539
329114,1959,1295,729,16776,-796,-2896,-1024,-729,665
329124,1959,1290,748,16752,-740,-3112,-992,-665,641
329134,1959,1289,737,16788,-804,-3056,-976,-771,568
329144,1957,1341,739,16616,-956,-2800,-992,-903,497
329154,1960,1369,733,16712,-1124,-2240,-992,-785,563
329164,1958,1367,739,16788,-1404,-2464,-976,-501,298
329174,1957,1305,733,16788,-1236,-2264,-1008,-110,137
329184,1952,1295,731,16840,-1236,-2284,-960,271,260
329194,1963,1286,731,16732,-1044,-2476,-976,447,499
329204,1957,1290,731,16484,-672,-2792,-1008,597,615
329214,1959,1288,729,16460,-644,-3036,-1024,363,509
329224,1955,1319,722,16508,-772,-3024,-1008,-237,299
329234,1957,1307,730,16472,-684,-2992,-992,-618,138
329244,1959,1273,729,16588,-792,-2812,-992,-618,153
329254,1967,1306,729,16616,-776,-2720,-976,-504,328
329264,1955,1273,737,16708,-848,-2372,-1024,-166,472
329274,1957,1291,735,16664,-1044,-2416,-992,-75,410
329284,1957,1285,730,16744,-1188,-2300,-1024,-117,435
329294,1957,1261,731,16656,-1000,-2324,-976,166,360
329304,1957,1267,729,16548,-792,-2512,-1008,863,164
329314,1957,1273,728,16724,-388,-2788,-1008,1242,170
329324,1955,1301,727,16716,-172,-2968,-1008,907,515
329334,1957,1316,723,16656,-60,-2904,-976,289,661
329344,1955,1300,727,16652,-80,-2748,-1008,-119,396
329354,1957,1301,726,16604,-8,-2484,-1024,-210,177
329364,1951,1289,727,16620,-40,-2660,-976,-38,158
329374,1951,1289,725,16684,-220,-2628,-1008,178,171
329384,1951,1300,727,16736,-324,-2584,-992,137,247
329394,1951,1257,733,16740,-608,-2736,-1024,-22,418
329404,1951,1290,732,16588,-560,-2524,-1024,114,244
329414,1956,1299,729,16688,-772,-2268,-992,537,99
329424,1957,1287,727,16844,-600,-2384,-992,748,212
329434,1955,1259,726,16592,-456,-2644,-992,923,302
329444,1951,1272,722,16600,-520,-2836,-960,725,340
329454,1952,1261,729,16608,-536,-2520,-1008,232,408
329464,1955,1267,730,16508,-684,-2852,-1024,-155,362
329474,1955,1271,729,16536,-616,-2564,-992,-190,96
329484,1955,1273,729,16760,-648,-2428,-1008,49,13
329494,1955,1259,729,16884,-752,-2584,-1008,4,180
329504,1955,1251,727,16732,-668,-2444,-992,45,433
329514,1947,1259,730,16612,-804,-2568,-1008,227,353
329524,1955,1244,731,16620,-644,-2740,-992,246,132
329534,1941,1269,728,16700,-656,-2708,-1024,410,-94
329544,1951,1301,727,16952,-732,-2424,-976,715,-137
329554,1955,1275,725,16864,-408,-2356,-992,964,185
329564,1951,1263,728,16808,-56,-2864,-1008,1178,418
329574,1951,1277,728,16816,0,-3140,-1008,918,454
329584,1951,1269,725,16688,-80,-2904,-1024,345,367
329594,1952,1288,727,16600,-236,-3252,-992,-233,169
329604,1952,1286,725,16764,-388,-3336,-944,-494,70
329614,1955,1263,728,16592,-676,-3008,-1024,-350,233
329624,1951,1263,728,16696,-724,-2928,-992,-235,559
329634,1951,1259,729,16640,-752,-2572,-1008,47,749
329644,1957,1267,728,16472,-768,-2736,-1024,286,707
329654,1947,1274,727,16624,-812,-2684,-976,247,588
329664,1949,1277,725,16692,-768,-2736,-976,-1,554
329674,1951,1263,731,16628,-900,-2640,-992,-84,524
329684,1951,1250,729,16732,-792,-2596,-976,124,452
329694,1951,1253,728,16760,-1012,-2540,-1008,418,520
329704,1951,1267,723,16624,-908,-2948,-992,206,734
329714,1949,1252,727,16612,-884,-2956,-1008,51,822
329724,1951,1284,723,16624,-860,-2580,-1008,17,790
329734,1951,1267,727,16568,-928,-2496,-1024,14,783
329744,1951,1256,727,16620,-716,-2508,-992,44,727
329754,1920,1257,729,16700,-752,-2540,-992,117,575
329764,1951,1255,717,16732,-576,-2164,-992,341,621
329774,1951,1215,728,16788,-468,-2272,-976,493,756
329784,1951,1243,727,16764,-292,-2568,-1024,302,821
329794,1950,1240,727,16556,-128,-2312,-1024,39,875
329804,1951,1237,726,16632,-340,-2316,-976,-306,867
329814,1945,1241,726,16600,-592,-2380,-992,-752,702
329824,1951,1245,727,16692,-700,-2180,-960,-888,502
329834,1951,1228,726,16732,-920,-2208,-992,-656,427
329844,1948,1229,717,16744,-712,-1824,-976,-252,462
329854,1949,1225,726,16904,-576,-1980,-1008,86,597
329864,1951,1243,725,16752,-480,-2284,-1008,-66,693
329874,1950,1261,701,16596,-684,-2240,-1008,-533,628
329884,1915,1257,725,16460,-688,-2332,-976,-843,461
329894,1950,1253,726,16664,-624,-2076,-1008,-658,259
329904,1951,1256,725,16704,-460,-2220,-992,-295,254
329914,1951,1247,725,16888,-460,-2152,-1008,-354,574
329924,1950,1247,726,16724,-524,-2268,-1008,-559,671
329934,1951,1238,725,16472,-760,-2416,-1024,-746,514
329944,1949,1235,725,16532,-832,-2088,-1024,-896,359
329954,1949,1234,725,16596,-908,-2076,-1024,-816,342
329964,1955,1229,728,16740,-972,-1988,-992,-652,69
329974,1949,1244,723,16832,-956,-2292,-992,-654,184
329984,1943,1236,723,16716,-804,-2232,-992,-465,420
329994,1951,1236,727,16600,-828,-2244,-992,-173,434
330004,1949,1244,725,16664,-928,-2092,-1008,-215,397
330014,1950,1235,724,16616,-852,-2216,-1024,-419,286
330024,1949,1235,724,16644,-804,-2320,-992,-480,88
330034,1951,1229,724,16616,-872,-2280,-976,-493,41
330044,1950,1226,724,16732,-936,-2312,-976,-554,177
330054,1949,1234,719,16644,-908,-2492,-992,-408,318
330064,1949,1245,724,16632,-736,-2396,-1008,-150,379
330074,1947,1257,724,16608,-716,-2564,-992,-203,348
330084,1951,1239,723,16804,-632,-2648,-992,-458,309
330094,1948,1267,725,16712,-748,-2344,-1008,-613,249
330104,1945,1243,723,16792,-736,-2408,-992,-581,217
330114,1982,1246,696,16672,-820,-2328,-1024,-537,257
330124,1943,1255,724,16740,-940,-2104,-1008,-489,354
330134,1949,1258,723,16556,-1092,-1804,-992,-241,411
330144,1948,1260,725,16588,-1056,-2156,-960,-108,290
330154,1949,1252,723,16632,-1168,-2132,-976,-84,158
330164,1948,1254,723,16688,-1148,-2144,-976,-48,96
330174,1947,1240,723,16584,-964,-2296,-1008,46,111
330184,1949,1239,722,16612,-812,-2504,-976,218,148
330194,1949,1244,723,16788,-756,-2424,-992,360,220
330204,1948,1251,726,16700,-396,-2444,-976,451,253
330214,1949,1269,723,16660,-332,-2668,-1008,409,295
330224,1948,1252,723,16756,-368,-2572,-992,85,316
330234,1949,1237,725,16736,-484,-2460,-1008,-202,241
330244,1948,1241,723,16612,-596,-2332,-976,-422,120
330254,1948,1244,717,16820,-816,-2304,-960,-426,-86
330264,1949,1240,720,16844,-756,-2332,-992,-175,-67
330274,1947,1235,723,16876,-720,-2076,-1024,14,219
330284,1948,1225,722,16696,-820,-2104,-992,125,500
330294,1949,1195,727,16544,-700,-2392,-976,170,422
330304,1947,1230,723,16556,-768,-2156,-992,95,161
330314,1947,1227,725,16692,-828,-2236,-992,-217,7
330324,1950,1225,719,16768,-960,-2256,-976,-413,-14
330334,1947,1229,725,16772,-1044,-2164,-992,-177,-64
330344,1948,1227,725,16752,-940,-1992,-992,292,50
330354,1949,1226,723,16748,-848,-2264,-1008,377,204
330364,1949,1235,725,16732,-880,-2208,-1008,96,506
330374,1949,1237,715,16632,-804,-2512,-944,-115,196
330384,1948,1245,727,16512,-964,-2476,-992,-135,30
330394,1951,1235,722,16660,-1176,-2124,-976,-126,-73
330404,1951,1181,728,16648,-1460,-2228,-976,-135,-266
330414,1947,1203,723,16692,-1716,-2060,-1008,-54,-317
330424,1949,1213,723,16848,-1652,-2216,-992,369,-86
330434,1945,1210,723,16624,-1400,-2488,-960,820,85
330444,1946,1207,726,16812,-1320,-2484,-992,898,35
330454,1947,1205,721,16748,-1332,-2444,-992,712,-22
330464,1949,1227,725,16704,-1104,-2724,-992,624,-20
330474,1947,1240,723,16612,-768,-2732,-976,754,19
330484,1947,1235,723,16628,-504,-2580,-1024,956,191
330494,1947,1229,723,16620,-184,-3064,-976,1032,300
330504,1948,1240,718,16704,-4,-2592,-960,890,297
330514,1947,1241,717,16716,552,-2476,-992,849,379
330524,1909,1245,721,16572,664,-2628,-1008,685,399
330534,1947,1249,717,16748,752,-2528,-1008,132,456
330544,1944,1241,721,16684,496,-2532,-960,-476,433
330554,1947,1239,717,16564,224,-2388,-976,-852,233
330564,1947,1239,717,16592,-284,-2068,-992,-812,37
330574,1947,1247,715,16812,-568,-1888,-992,-486,12
330584,1959,1223,719,16752,-968,-2116,-976,12,56
330594,1948,1224,723,16708,-944,-1864,-1024,536,130
330604,1947,1234,721,16760,-844,-1972,-1024,703,240
330614,1945,1237,723,16664,-700,-2196,-1008,574,205
330624,1947,1239,717,16560,-648,-2148,-960,499,-46
330634,1947,1243,721,16664,-620,-2488,-1024,403,-181
330644,1947,1254,719,16768,-556,-2636,-976,323,-20
330654,1959,1245,714,16700,-728,-2648,-992,230,133
330664,1947,1233,717,16672,-744,-2848,-992,56,229
330674,1951,1229,723,16564,-984,-2792,-976,-162,316
330684,1947,1251,722,16548,-948,-2576,-992,-229,339
330694,1947,1231,723,16608,-1000,-2404,-1008,-176,228
330704,1945,1227,719,16652,-1084,-2168,-1008,-242,182
330714,1947,1210,723,16808,-988,-2172,-976,-211,191
330724,1947,1203,722,16760,-1008,-1976,-976,65,262
330734,1945,1195,722,16568,-904,-2244,-1008,220,284
330744,1946,1187,725,16624,-780,-2236,-992,275,166
330754,1944,1225,722,16680,-772,-2276,-1008,369,19
330764,1947,1238,717,16768,-632,-2352,-976,384,-26
330774,1945,1230,717,16764,-476,-2464,-960,459,38
330784,1946,1215,718,16808,-464,-2440,-992,491,186
330794,1946,1211,718,16648,-464,-2444,-960,347,104
330804,1946,1211,718,16680,-484,-2628,-992,14,123
330814,1947,1210,718,16688,-656,-2504,-992,-166,60
330824,1945,1222,717,16672,-800,-2540,-1024,-205,-96
330834,1947,1213,717,16716,-648,-2544,-992,-103,-147
330844,1945,1205,719,16772,-612,-2376,-944,5,102
330854,1945,1213,716,16772,-604,-2404,-1024,-58,328
330864,1945,1230,719,16580,-620,-2288,-992,-108,244
330874,1945,1221,721,16600,-708,-2472,-1008,-328,79
330884,1945,1207,722,16544,-736,-2376,-1008,-356,-123
330894,1946,1211,717,16640,-820,-2212,-1008,-35,-154
330904,1947,1211,717,16684,-684,-2312,-976,147,39
330914,1946,1215,718,16716,-592,-2496,-976,161,177
330924,1945,1213,723,16636,-484,-2456,-1008,228,162
330934,1947,1211,716,16680,-440,-2644,-1008,127,65
330944,1947,1211,727,16632,-432,-2404,-992,-31,14
330954,1947,1211,716,16632,-540,-2484,-1008,-127,-61
330964,1955,1212,717,16748,-452,-2296,-1008,-85,23
330974,1945,1211,717,16772,-456,-2412,-960,-28,190
330984,1956,1207,717,16696,-452,-2712,-992,-40,173
330994,1913,1223,717,16556,-392,-2652,-992,-31,138
331004,1945,1215,719,16608,-364,-2292,-992,-38,127
331014,1945,1228,715,16672,-256,-2348,-992,-55,137
331024,1945,1225,715,16644,-220,-2428,-1008,-89,88
331034,1946,1221,717,16664,-236,-2164,-976,-120,33
331044,1943,1215,715,16708,-128,-2600,-944,-177,26
331054,1947,1211,717,16880,-196,-2608,-992,-337,69
331064,1945,1224,716,16624,-316,-2468,-992,-374,26
331074,1947,1235,718,16604,-300,-2472,-976,-287,-22
331084,1943,1227,714,16800,-328,-2504,-976,-235,5
331094,1945,1225,715,16720,-436,-2384,-1024,-224,108
331104,1944,1223,715,16756,-416,-2484,-976,-297,88
331114,1945,1238,717,16616,-508,-2216,-976,-130,31
331124,1945,1213,715,16596,-564,-2324,-960,-107,9
331134,1943,1214,717,16612,-592,-2468,-992,-202,-37
331144,1944,1212,715,16596,-496,-2472,-992,-152,8
331154,1947,1207,717,16540,-464,-2728,-992,-144,94
331164,1945,1211,717,16612,-580,-2548,-1008,-183,77
331174,1945,1211,718,16620,-712,-2468,-992,-219,-37
331184,1944,1212,715,16640,-904,-2548,-992,-273,-25
331194,1945,1214,715,16688,-888,-2552,-976,-215,-67
331204,1945,1213,717,16812,-996,-2744,-992,-92,-140
331214,1947,1211,715,16708,-1180,-2696,-992,-9,-88
331224,1945,1223,713,16784,-1136,-2656,-976,45,184
331234,1945,1210,711,16560,-1136,-2900,-960,177,250
331244,1946,1199,718,16524,-944,-2896,-1008,354,148
331254,1944,1199,715,16536,-1008,-2884,-976,279,107
331264,1927,1203,716,16596,-924,-2608,-960,102,127
331274,1944,1195,717,16756,-748,-2628,-976,145,186
331284,1945,1196,716,16752,-656,-2652,-976,153,268
331294,1944,1205,717,16608,-688,-2668,-992,157,317
331304,1944,1203,718,16596,-476,-2724,-1008,134,352
331314,1945,1199,715,16540,-496,-2728,-976,164,285
331324,1945,1209,716,16572,-412,-2744,-992,83,278
331334,1951,1203,715,16716,-228,-2580,-992,-122,276
331344,1944,1198,715,16696,-412,-2484,-1024,-131,288
331354,1945,1211,715,16664,-480,-2636,-960,-100,238
331364,1945,1208,714,16600,-528,-2452,-992,-198,229
331374,1944,1209,716,16704,-704,-2532,-960,-52,189
331384,1945,1209,717,16652,-596,-2564,-992,129,214
331394,1943,1211,713,16796,-612,-2624,-944,173,330
331404,1959,1211,716,16672,-496,-2456,-992,190,382
331414,1945,1206,718,16548,-492,-2524,-992,120,382
331424,1945,1236,717,16548,-468,-2736,-992,-57,312
331434,1945,1213,715,16596,-564,-2676,-1008,-350,215
331444,1944,1209,715,16732,-500,-2532,-944,-316,211
331454,1945,1205,703,16760,-584,-2568,-1008,-165,274
331464,1940,1209,714,16684,-676,-2644,-976,-102,380
331474,1944,1206,715,16716,-496,-2676,-1008,-200,443
331484,1955,1209,716,16736,-756,-2500,-944,-243,433
331494,1947,1207,715,16696,-664,-2508,-992,-289,394
331504,1944,1206,719,16596,-832,-2364,-992,-238,287
331514,1945,1205,713,16616,-848,-2328,-1008,-120,204
331524,1945,1207,716,16716,-800,-2448,-992,-38,265
331534,1944,1205,716,16840,-728,-2448,-992,-61,365
331544,1944,1191,714,16720,-696,-2320,-992,56,336
331554,1944,1193,713,16676,-776,-2528,-992,-36,212
331564,1943,1199,679,16616,-676,-2592,-976,-375,182
331574,1945,1203,715,16640,-656,-2428,-992,-254,190
331584,1945,1203,715,16676,-652,-2512,-992,-130,123
331594,1943,1212,716,16656,-616,-2700,-976,-207,249
331604,1943,1208,715,16564,-756,-2576,-1008,-411,429
331614,1944,1223,715,16548,-992,-2552,-960,-566,371
331624,1945,1208,713,16672,-1016,-2288,-1008,-413,340
331634,1944,1198,715,16672,-1072,-2344,-976,-137,305
331644,1955,1203,713,16720,-1156,-2468,-960,30,332
331654,1935,1199,714,16692,-972,-2392,-1008,45,454
331664,1945,1197,714,16680,-884,-2380,-1024,180,439
331674,1939,1204,715,16712,-792,-2436,-992,176,318
331684,1942,1195,715,16800,-704,-2292,-976,-66,278
331694,1944,1245,715,16828,-792,-2200,-960,-194,311
331704,1944,1192,713,16640,-960,-2312,-992,-148,249
331714,1943,1193,715,16708,-1048,-2484,-1008,23,133
331724,1943,1193,712,16736,-960,-2560,-960,293,110
331734,1945,1197,714,16764,-972,-2584,-992,502,224
331744,1943,1203,715,16768,-768,-2824,-976,447,390
331754,1947,1199,715,16584,-856,-3032,-1008,209,479
331764,1944,1203,712,16484,-936,-2652,-1008,29,452
331774,1945,1204,713,16492,-896,-2712,-976,93,389
331784,1945,1181,715,16488,-816,-2760,-992,220,393
331794,1942,1187,716,16672,-976,-2764,-976,228,562
331804,1944,1204,713,16656,-928,-2804,-976,214,738
331814,1943,1203,715,16556,-820,-2592,-960,291,857
331824,1943,1195,714,16528,-748,-2688,-976,338,851
331834,1941,1181,716,16592,-644,-2544,-976,374,705
331844,1942,1211,715,16604,-496,-2504,-960,298,658
331854,1944,1179,716,16680,-604,-2944,-992,159,769
331864,1939,1181,717,16632,-884,-2816,-960,-50,897
331874,1946,1181,718,16476,-976,-2884,-992,-3,1136
331884,1943,1175,715,16424,-1356,-3004,-992,60,1250
331894,1944,1149,715,16376,-1504,-2816,-992,80,1277
331904,1945,1145,712,16560,-1360,-2220,-992,284,1408
331914,1943,1173,713,16860,-1168,-2272,-1008,499,1398
331924,1945,1172,717,16884,-940,-2804,-960,564,1174
331934,1944,1224,716,16860,-812,-2848,-992,522,1159
331944,1945,1246,714,16780,-468,-2476,-976,696,1487
331954,1943,1253,711,16956,-396,-3036,-1008,870,1598
331964,1941,1253,713,16608,116,-3376,-992,1224,1599
331974,1941,1247,711,16596,748,-3688,-992,1425,1763
331984,1941,1246,711,16884,828,-3700,-976,693,2015
331994,1943,1279,715,16640,1068,-3276,-976,-589,2627
332004,1941,1229,711,16596,728,-3276,-976,-1766,2943
332014,1943,1223,713,16644,-208,-2392,-992,-2737,2441
332024,1942,1215,712,16952,-692,-1392,-992,-2892,1901
332034,1943,1256,715,16812,-1200,-1084,-1024,-2375,1865
332044,1947,1231,712,16980,-1344,-984,-992,-1166,2117
332054,1945,1235,703,16996,-1000,-792,-992,228,1924
332064,1943,1237,703,16896,-128,-1136,-976,1414,1880
332074,1944,1213,703,17220,720,-1912,-992,1520,1843
332084,1942,1203,712,17176,1428,-1916,-1008,703,1908
332094,1943,1182,716,16876,1424,-2204,-960,-894,2427
332104,1943,1174,715,16460,648,-2252,-960,-2751,2966
332114,1944,1136,715,16492,-332,-1652,-976,-3540,2560
332124,1943,1203,709,16296,-992,-1200,-976,-2577,1555
332134,1944,1230,709,16256,-1156,-968,-992,-710,1748
332144,1943,1225,709,16900,-932,-1092,-1024,849,2157
332154,1943,1212,719,17272,-244,-972,-960,1600,2518
332164,1943,1207,716,16892,504,-948,-992,1358,3286
332174,1935,1171,719,16464,476,-908,-976,419,3611
332184,1943,1144,711,16520,104,-916,-960,-629,2943
332194,1941,1134,715,16576,-368,-988,-960,-1046,1536
332204,1944,1194,713,16044,-928,-196,-976,-715,1307
332214,1943,1159,709,16804,-1764,-800,-960,-204,1721
332224,1941,1179,703,16980,-1760,-956,-960,419,1370
332234,1941,1267,711,16556,-1388,-860,-976,1579,1873
332244,1943,1215,710,16872,-1220,-1048,-1008,1731,2600
332254,1943,1205,711,17000,-1052,-1084,-1008,739,2580
332264,1943,1206,717,16476,-1168,-472,-976,-279,2597
332274,1943,1170,710,16724,-1752,-60,-960,-1022,2042
332284,1944,1177,712,16852,-2216,256,-976,-1021,1059
332294,1943,1239,709,16732,-2336,496,-1008,-26,744
332304,1943,1147,703,17248,-1952,136,-992,1386,753
332314,1944,1188,709,17252,-916,-440,-992,2327,1110
332324,1939,1164,711,17176,136,-912,-992,2337,1788
332334,1942,1151,695,16904,172,-1364,-992,930,2181
332344,1942,1193,721,16388,144,-764,-992,-918,2427
332354,1913,1173,712,16528,172,-276,-992,-1790,2052
332364,1944,1180,679,16204,136,328,-992,-1312,1319
332374,1943,1183,713,16516,72,492,-976,-476,1029
332384,1954,1183,713,17028,-116,396,-992,-381,817
332394,1943,1209,709,17080,36,496,-960,-397,957
332404,1940,1207,712,17004,52,188,-976,-375,1273
332414,1945,1192,713,16820,-112,272,-992,-551,980
332424,1943,1195,710,16528,-376,-484,-992,-1034,738
332434,1943,1173,711,16488,-228,-796,-976,-1115,619
332444,1939,1195,703,16712,-348,-824,-976,-997,383
332454,1941,1210,709,16936,-444,-636,-976,-1090,427
332464,1931,1209,713,15664,136,-2280,-992,-1699,-1631
332474,1941,1208,713,16336,-468,1956,-1008,-2012,-2819
332484,1941,1177,702,19032,-232,216,-976,-1955,-595
332494,1943,1175,711,13032,-164,-2636,-1008,61,-4436
332504,1945,1261,713,21048,-776,4376,-1024,-2332,112
332514,1939,1135,702,18676,-352,-888,-1024,-3563,4881
332524,1941,1135,723,16220,-388,-372,-960,-301,5098
332534,1944,1192,714,17072,-1260,1608,-960,2106,4386
332544,1941,1181,699,15808,-1604,-936,-992,1545,3096
332554,1941,1222,702,15416,-1024,-1116,-1008,680,886
332564,1943,1237,711,16060,-772,-1556,-976,-269,-1213
332574,1940,1229,711,16916,-840,-948,-1008,-1461,-1605
332584,1943,1182,709,17280,-996,20,-992,-876,-502
332594,1929,1195,711,17440,-1056,-280,-976,545,946
332604,1943,1202,711,17232,-892,-748,-976,1198,1799
