Time,MMG1,MMG2,MMG3,MMG4,EMG,AccelX,AccelY,AccelZ,GyroX,GyroY,GyroZ
0,849,784,987,727,959,17136,-3444,-572,-1776,-59,865
4,857,786,976,733,927,17196,-3304,-760,-1788,-212,912
7,840,774,966,721,896,17096,-3504,-328,-1626,94,868
10,841,758,970,726,877,17340,-3504,-432,-1491,289,909
13,845,768,975,734,867,17000,-3484,-392,-1424,190,843
16,838,781,965,738,848,16880,-3416,-636,-1267,-201,868
19,853,787,966,740,835,17032,-3324,-484,-1270,-445,818
22,833,783,959,748,821,17548,-2972,-456,-1507,-47,610
25,845,780,960,750,815,17480,-3292,-604,-1352,50,618
28,843,790,953,769,793,17276,-3140,-532,-1453,-41,559
31,843,803,956,740,785,17192,-3188,-164,-1407,-111,505
34,848,781,948,742,774,16972,-3220,-272,-1270,-370,462
37,843,800,951,739,768,17384,-2956,-512,-1516,-384,332
40,848,784,951,740,756,17080,-3056,-380,-1451,-523,288
43,851,779,951,737,749,17496,-2984,-320,-1586,-322,217
46,848,767,958,727,737,17364,-3072,-468,-1566,-277,147
49,842,763,957,719,726,17424,-3076,-540,-1750,-93,58
52,849,762,966,708,719,17376,-3100,-692,-1825,-5,44
55,854,760,960,704,719,17140,-3216,-516,-1879,35,-59
58,855,756,963,705,707,17016,-3424,-516,-1852,138,-36
61,857,750,976,705,703,17468,-3228,-632,-2051,291,-131
64,854,766,970,711,692,17136,-3596,-756,-1958,272,-99
67,847,767,972,720,688,16704,-3640,-600,-1943,202,-96
70,852,769,971,715,684,16656,-3680,-592,-1943,63,-111
73,849,779,969,720,675,17076,-3884,-712,-1895,289,-58
76,847,784,962,721,676,17296,-3740,-812,-1869,513,-65
79,849,794,963,726,663,16464,-3888,-448,-1802,411,17
82,847,791,967,735,656,16876,-3780,-608,-1936,509,-53
85,848,797,970,731,656,16768,-3752,-560,-1891,534,-43
88,850,786,965,738,651,16648,-3996,-460,-1749,491,62
91,853,784,971,740,642,16588,-4056,-468,-1745,446,60
94,849,783,967,746,639,16692,-3824,-384,-1699,511,78
97,851,779,967,749,631,16832,-3672,-460,-1723,706,111
100,849,786,969,752,630,16824,-3720,-624,-1659,747,164
103,845,784,973,754,629,16252,-3868,-448,-1645,653,179
106,848,784,972,752,625,16684,-3764,-592,-1518,745,179
109,833,790,970,761,621,16500,-3580,-536,-1651,844,158
112,845,784,966,763,614,16716,-3552,-556,-1665,842,156
115,847,787,972,766,611,15920,-3748,-592,-1699,396,226
118,843,790,961,771,612,16344,-3472,-800,-1714,337,282
121,847,785,966,775,607,16172,-3704,-700,-1925,139,352
124,848,794,963,783,607,17412,-3304,-940,-2018,764,118
127,848,787,958,787,601,17400,-3280,-1156,-2126,828,92
130,848,787,955,797,602,16496,-3608,-744,-2081,758,93
133,848,787,958,789,598,16728,-3592,-1020,-2284,661,56
136,854,789,954,785,595,16596,-3648,-964,-2315,526,68
139,849,789,955,784,591,16808,-3640,-776,-2286,479,106
142,854,787,946,784,589,16448,-3804,-884,-2357,281,29
145,852,787,958,783,589,17460,-3676,-1144,-2529,645,-134
148,854,783,958,775,590,16572,-3984,-640,-2532,445,-135
151,853,786,959,770,585,16532,-4088,-560,-2584,483,-223
154,851,784,957,775,583,16276,-4252,-708,-2516,272,-142
157,849,781,958,768,582,16924,-4072,-1252,-2688,547,-347
160,853,784,965,766,581,16784,-4200,-1012,-2701,495,-387
163,849,775,957,767,581,16536,-4516,-868,-2530,346,-405
166,848,774,961,773,580,16232,-4480,-772,-2606,276,-462
169,852,771,960,781,579,16584,-4540,-1120,-2498,309,-456
172,849,769,960,786,576,16304,-4584,-884,-2426,184,-367
175,847,768,959,788,576,15948,-4892,-828,-1949,-351,-334
178,844,766,966,787,574,15408,-4904,-852,-2183,-800,-327
181,842,768,970,793,576,17088,-4540,-916,-2149,-40,-329
184,843,770,969,798,570,16744,-4672,-980,-2037,-25,-432
187,841,769,976,802,569,16600,-4712,-1020,-1971,98,-412
190,839,769,976,801,569,16592,-4696,-1128,-1930,165,-368
193,842,771,975,803,570,16552,-4692,-1000,-1765,182,-342
196,838,774,976,807,570,16396,-4824,-980,-1680,179,-243
199,839,773,977,807,563,16536,-4680,-1048,-1489,207,-203
202,837,771,979,809,563,16740,-4612,-1028,-1544,283,-274
205,837,768,977,805,565,16760,-4564,-1128,-1437,395,-284
208,838,768,976,802,568,16644,-4624,-1168,-1407,446,-267
211,837,763,976,801,563,16696,-4704,-1256,-1278,550,-313
214,839,761,976,801,569,16624,-4532,-1208,-1206,571,-325
217,839,759,973,796,563,16584,-4440,-1060,-1057,570,-345
220,839,760,976,799,565,16296,-4536,-1012,-806,290,-328
223,843,768,978,794,560,15848,-4596,-988,-792,255,-306
226,846,765,976,793,560,16740,-4228,-1092,-832,482,-439
229,834,769,974,793,564,16628,-4528,-928,-688,642,-480
232,842,766,979,789,560,16344,-4568,-844,-573,605,-482
235,846,767,979,784,560,16388,-4696,-864,-475,638,-457
238,847,765,986,785,561,16568,-4580,-824,-383,619,-485
241,845,767,979,777,557,16424,-4444,-980,-254,583,-493
244,848,763,985,770,560,16484,-4508,-852,-118,597,-487
247,848,754,992,767,559,16412,-4460,-936,-35,560,-465
250,851,757,989,760,559,16512,-4564,-748,84,514,-465
253,847,753,993,755,558,16568,-4484,-896,200,518,-419
256,850,752,995,753,559,16412,-4544,-968,271,485,-416
259,850,747,996,755,558,16484,-4468,-1048,398,519,-384
262,857,747,996,747,560,16460,-4496,-984,525,534,-364
265,848,745,998,749,551,16360,-4576,-944,629,583,-336
268,848,739,995,745,556,16312,-4600,-1100,755,545,-315
271,848,737,1001,739,558,16364,-4580,-944,829,518,-305
274,847,735,999,733,558,16292,-4468,-724,915,442,-297
277,847,742,1005,734,558,16364,-4428,-1084,939,472,-300
280,847,743,1007,731,555,16400,-4376,-992,998,482,-291
283,848,742,1008,730,555,16356,-4196,-1024,1102,474,-252
286,847,751,1006,723,553,16520,-4192,-864,1122,499,-217
289,848,752,1003,734,550,16532,-4184,-1016,1206,476,-185
292,847,757,1008,735,556,16564,-4104,-896,1175,490,-206
295,848,761,1007,737,556,16560,-4088,-952,1198,523,-201
298,844,753,1006,733,550,16516,-4000,-948,1186,564,-187
301,845,757,1002,732,553,16596,-4048,-892,1156,578,-169
304,846,752,1002,735,554,16732,-3868,-760,1080,598,-199
307,848,752,1031,736,557,16628,-3828,-724,1102,570,-170
310,849,757,999,732,551,16504,-3764,-700,1059,538,-158
313,848,758,996,736,554,16584,-3752,-836,1069,541,-170
316,848,766,998,738,550,16504,-3688,-604,1092,499,-180
319,848,754,997,741,552,16680,-3524,-772,1104,482,-192
322,848,752,994,752,550,16556,-3632,-808,1087,476,-186
325,839,752,997,745,550,16556,-3688,-708,1067,504,-178
328,845,754,991,747,549,16576,-3632,-720,1095,476,-188
331,847,752,992,747,550,16684,-3612,-736,935,554,-227
334,841,754,989,747,550,16616,-3588,-684,1004,585,-192
337,848,753,989,751,554,16784,-3576,-872,931,594,-204
340,848,751,989,746,551,16560,-3536,-712,927,570,-168
343,848,758,989,747,553,16736,-3484,-700,758,534,-168
346,840,755,988,743,553,16628,-3628,-656,713,577,-102
349,845,753,992,742,554,16764,-3412,-808,553,533,-138
352,839,757,998,742,554,16620,-3472,-708,523,584,-150
355,848,757,996,747,556,16752,-3264,-620,400,561,-127
358,848,754,998,748,551,16636,-3396,-544,369,624,-70
361,845,752,993,751,550,16344,-3488,-500,385,462,-57
364,845,752,993,749,553,16628,-3436,-536,286,490,-85
367,848,754,999,749,553,16664,-3408,-752,236,411,-42
370,849,763,995,751,556,16656,-3236,-724,154,464,-33
373,845,754,999,752,551,16896,-3312,-672,3,489,-70
376,847,753,998,754,551,16620,-3252,-756,22,445,-3
379,845,758,997,755,548,16664,-3248,-552,1,438,-32
382,845,758,1011,761,549,16860,-3184,-656,-81,472,-21
385,844,762,995,754,554,16656,-3124,-684,-74,435,-30
388,845,761,997,757,555,16560,-3240,-712,-94,384,30
391,842,759,999,754,550,16628,-3240,-812,-105,306,0
394,845,758,998,753,551,16636,-3144,-672,-197,332,0
397,844,765,997,762,551,16528,-3120,-604,-206,268,6
400,848,768,995,753,553,16404,-3128,-524,-263,201,31
403,847,765,1001,754,551,16572,-3080,-360,-256,205,65
406,846,774,999,758,552,16680,-3000,-436,-243,186,45
409,843,781,1002,762,547,16960,-2980,-544,-307,328,31
412,847,774,1003,755,553,16804,-3108,-436,-254,369,84
415,848,771,1007,758,555,16648,-3164,-484,-296,300,71
418,848,771,1008,758,554,16956,-3120,-472,-354,350,43
421,848,768,1005,752,548,17028,-3164,-452,-342,383,70
424,849,764,1007,749,553,17056,-3268,-464,-380,467,55
427,848,758,1008,742,551,17048,-3304,-420,-510,460,63
430,848,758,1006,738,552,17012,-3288,-592,-657,464,15
433,848,756,1007,733,554,16648,-3472,-424,-555,384,44
436,849,757,1038,726,547,17148,-3316,-492,-770,401,-9
439,853,763,1003,729,550,16928,-3292,-448,-841,467,-49
442,853,767,1005,731,547,16956,-3456,-416,-827,428,-17
445,854,769,998,739,550,16640,-3576,-416,-820,371,-11
448,851,769,1004,742,555,16768,-3556,-464,-791,375,-14
451,851,768,999,739,550,16620,-3672,-336,-725,332,18
454,853,770,997,741,551,16920,-3424,-392,-882,394,-87
457,850,774,997,741,551,16748,-3576,-280,-761,381,-29
460,851,774,995,749,549,17000,-3468,-564,-751,383,-37
463,850,783,996,749,553,16728,-3436,-300,-760,394,-68
466,848,781,993,749,555,17056,-3320,-508,-838,500,-135
469,848,784,991,745,553,17016,-3500,-404,-709,508,-88
472,848,775,1000,751,554,16968,-3292,-440,-731,443,-122
475,854,771,993,752,553,17124,-3392,-504,-650,501,-125
478,850,770,987,752,555,17076,-3240,-464,-630,596,-160
481,853,767,990,759,555,17036,-3264,-460,-592,685,-217
484,861,770,986,755,555,17168,-3156,-376,-589,797,-296
487,852,767,999,752,559,16744,-3428,-272,-378,661,-190
490,853,764,990,752,558,17000,-3164,-304,-566,774,-334
493,859,765,993,749,559,17044,-3316,-44,-459,926,-337
496,843,770,1002,744,556,17012,-3424,-116,-355,1057,-295
499,850,767,1005,739,553,16688,-3324,-196,-383,867,-262
502,849,768,1003,751,554,16772,-3284,-212,-386,956,-271
505,850,769,1003,738,560,16692,-3208,-384,-390,851,-245
508,850,765,1002,734,555,16676,-3284,-356,-346,792,-224
511,848,771,999,742,560,16652,-3224,-244,-423,784,-278
514,852,774,1008,742,553,16924,-3252,-220,-504,821,-297
517,850,771,1004,747,554,16768,-3312,-72,-524,801,-272
520,849,773,998,749,557,16852,-3180,-124,-633,741,-319
523,851,775,999,747,554,17000,-3244,-312,-668,720,-319
526,849,777,995,741,560,17136,-3252,-396,-738,891,-323
529,853,777,994,747,559,17040,-3212,-304,-708,881,-347
532,850,777,1000,751,555,16784,-3380,-260,-715,832,-335
535,850,775,995,751,556,16916,-3268,-288,-699,888,-346
538,854,778,995,743,557,16660,-3180,-276,-696,758,-349
541,854,773,995,754,559,16728,-3352,-228,-619,696,-319
544,855,775,1005,743,560,16708,-3304,-328,-576,627,-366
547,858,775,991,736,559,16684,-3300,-372,-452,783,-281
550,852,775,989,736,555,16816,-3120,-272,-484,1149,-335
553,850,775,993,726,555,16760,-3272,-316,-309,949,-273
556,856,771,987,730,559,16800,-3064,-336,-370,867,-250
559,851,770,993,729,559,16632,-3080,-120,-281,808,-248
562,850,763,993,729,558,16948,-3080,-60,-347,842,-233
565,851,757,1007,731,557,16844,-3116,0,-325,900,-247
568,850,762,996,734,560,16828,-3132,-48,-378,990,-261
571,850,765,998,735,560,16844,-3120,44,-346,977,-245
574,848,775,998,739,562,16564,-3136,156,-449,934,-285
577,847,774,1003,734,561,16652,-3148,-112,-436,809,-237
580,850,775,1002,728,560,16652,-2896,216,-543,842,-266
583,846,779,1008,725,562,16840,-3028,124,-470,904,-215
586,846,779,1019,731,562,16700,-3072,-108,-394,699,-170
589,845,773,1008,731,564,16832,-3064,-92,-407,570,-135
592,841,771,1008,730,560,16724,-2880,-64,-410,541,-118
595,842,766,1009,734,560,16720,-2884,-164,-421,453,-109
598,848,767,1003,739,563,16820,-2992,-120,-442,605,-130
601,837,763,1006,738,561,17000,-3000,-120,-462,650,-125
604,835,755,1005,741,561,16664,-2888,-64,-426,636,-104
607,843,762,1002,745,565,16880,-2964,-68,-512,670,-147
610,845,753,1001,745,560,16912,-2960,-84,-628,827,-182
613,846,759,1003,741,561,16784,-3024,28,-538,772,-116
616,846,760,999,740,567,16684,-2980,-220,-612,448,-48
619,843,761,997,736,567,16932,-2932,-56,-693,371,-50
622,842,763,997,736,563,16852,-2892,228,-702,585,-48
625,848,764,992,739,565,16700,-2924,280,-644,511,-15
628,845,768,996,736,560,16956,-2752,216,-800,426,-58
631,845,766,997,737,567,17032,-2916,468,-771,655,-33
634,848,765,995,735,564,16844,-2824,124,-782,625,-47
637,851,763,992,749,565,16880,-2612,500,-748,641,-37
640,850,765,995,727,562,16840,-2948,156,-729,473,-46
643,849,766,1003,726,560,16740,-2980,364,-739,405,-37
646,848,767,1001,722,565,16832,-2812,304,-759,319,-63
649,849,769,993,722,566,16984,-2936,260,-798,396,-57
652,848,771,1001,719,560,16908,-2864,412,-804,404,-66
655,855,770,1001,722,563,17072,-2972,148,-804,427,-79
658,843,772,996,721,563,17132,-2788,92,-871,408,-78
661,849,768,998,734,562,17080,-3072,84,-886,480,-82
664,846,769,992,720,566,16956,-3104,140,-829,421,-53
667,847,775,995,722,562,17056,-3020,176,-995,427,-122
670,848,767,993,726,563,17208,-3160,92,-918,479,-79
673,848,770,989,731,560,16960,-3072,76,-939,564,-83
676,847,769,990,730,563,17004,-3208,28,-927,516,-94
679,845,767,989,723,560,16944,-3196,32,-960,536,-112
682,843,769,1014,729,563,16932,-3348,8,-947,536,-132
685,845,773,981,727,563,16984,-3296,-28,-950,539,-94
688,845,770,982,726,562,16980,-3308,176,-933,606,-121
691,843,778,985,720,562,16844,-3276,96,-889,524,-92
694,839,779,990,726,563,17032,-3188,116,-881,571,-114
697,848,783,987,730,563,16800,-3244,128,-837,347,-72
700,849,781,992,735,563,16904,-3140,228,-853,202,-44
703,848,779,991,739,564,17100,-3164,108,-846,293,-59
706,850,772,989,742,561,17228,-3148,260,-830,298,-88
709,849,770,992,747,560,17196,-3016,96,-820,377,-61
712,848,767,986,749,566,17356,-2916,112,-880,385,-86
715,850,768,977,752,566,17224,-2956,140,-907,430,-90
718,853,768,976,752,563,17040,-3020,100,-915,610,-110
721,852,770,973,754,565,17272,-2892,328,-909,304,-16
724,854,768,969,757,567,17096,-2804,176,-1208,91,-88
727,851,775,976,759,561,17116,-3028,-12,-1156,121,-78
730,850,778,978,758,567,17324,-2852,500,-1280,623,-123
733,854,775,977,752,563,17252,-2916,368,-1215,748,-119
736,853,778,981,749,563,16968,-2980,292,-1231,528,-139
739,850,779,979,753,563,16992,-2824,80,-1222,543,-127
742,876,779,976,749,567,16972,-2928,400,-1234,749,-176
745,857,783,976,750,569,17068,-2908,232,-1215,757,-225
748,850,784,980,752,560,16936,-2948,396,-1271,681,-228
751,852,785,976,753,560,17000,-3076,248,-1263,781,-284
754,850,782,976,766,561,17176,-2916,432,-1289,824,-302
757,858,788,975,767,566,17052,-3100,160,-1380,881,-325
760,854,790,972,767,567,17212,-3092,180,-1352,967,-358
763,856,791,974,768,566,17120,-3192,204,-1391,853,-314
766,858,803,967,763,563,16964,-3388,-36,-1378,661,-303
769,855,800,967,752,565,17116,-3312,48,-1428,792,-314
772,855,802,974,747,564,17004,-3420,-12,-1400,692,-369
775,854,805,970,738,566,17132,-3496,140,-1370,679,-409
778,857,804,975,750,568,17208,-3484,8,-1387,856,-474
781,859,809,975,746,566,17328,-3524,-24,-1295,936,-476
784,860,806,973,749,563,17408,-3392,20,-1303,1045,-529
787,871,815,970,751,569,17436,-3552,-164,-1290,1218,-574
790,859,813,969,752,563,17368,-3532,-180,-1286,1289,-547
793,858,809,966,752,566,17380,-3524,-276,-1336,1337,-618
796,859,808,964,746,566,17604,-3620,-260,-1319,1384,-620
799,863,803,964,752,567,17384,-3656,-364,-1346,1214,-659
802,857,800,961,759,565,17384,-3604,-248,-1382,1242,-758
805,857,803,954,767,573,17308,-3692,-340,-1343,1549,-814
808,857,797,954,774,565,17452,-3776,52,-1262,1757,-885
811,858,799,951,782,565,17092,-3712,-212,-1194,1702,-931
814,857,799,944,790,564,17020,-3804,-104,-1154,1607,-956
817,848,806,946,802,563,17052,-3780,-24,-1107,1722,-1051
820,862,798,949,812,570,16932,-3820,-8,-987,1586,-1084
823,855,793,944,819,565,16972,-3912,136,-980,1715,-1168
826,864,797,939,830,572,17140,-3868,28,-875,1699,-1164
829,864,801,943,838,565,17376,-3864,-80,-879,1822,-1215
832,866,798,937,847,568,17496,-3740,-68,-826,1907,-1228
835,870,803,930,847,572,17492,-3692,-132,-800,2093,-1256
838,863,803,925,851,570,17716,-3768,-428,-768,2111,-1224
841,859,806,921,852,571,17444,-3780,-412,-816,2061,-1261
844,871,810,915,851,567,17588,-3780,-208,-821,2068,-1341
847,861,812,915,850,569,17324,-3936,-276,-632,2007,-1345
850,861,805,929,848,574,17248,-3792,-232,-671,2057,-1426
853,860,794,922,848,574,17184,-3960,-236,-573,1928,-1483
856,866,799,927,846,574,16760,-3960,-60,-417,1697,-1472
859,863,799,929,836,565,16700,-3972,-40,-315,1721,-1569
862,859,793,938,839,566,16584,-4000,392,-77,1731,-1492
865,862,795,938,837,570,16564,-3928,44,-36,1688,-1571
868,866,789,939,834,574,16560,-3952,12,130,1698,-1495
871,866,794,944,832,568,16492,-3824,-56,70,1787,-1570
874,858,784,946,821,567,16468,-3892,244,294,1821,-1546
877,861,784,944,819,565,16556,-3688,180,391,1873,-1530
880,863,779,944,822,571,16560,-3632,124,315,1950,-1619
883,862,784,951,823,569,16492,-3556,136,510,1787,-1597
886,861,775,946,821,569,16488,-3444,348,524,1754,-1622
889,861,773,960,816,567,16608,-3440,268,615,1877,-1633
892,858,768,961,816,567,16516,-3576,192,680,2041,-1646
895,854,767,961,815,566,16484,-3380,128,643,1909,-1668
898,861,778,962,810,571,16516,-3516,412,677,1646,-1689
901,859,779,973,813,567,16544,-3388,532,670,1579,-1707
904,855,787,975,807,567,16448,-3404,372,680,1514,-1737
907,854,789,976,806,570,16496,-3552,568,869,1349,-1670
910,854,782,976,797,563,16380,-3268,92,612,967,-1786
913,852,786,976,797,574,16396,-3340,96,752,425,-1617
916,848,789,981,791,570,16584,-3424,1272,1125,1462,-1532
919,853,784,982,779,570,16708,-3448,720,1299,1618,-1436
922,849,787,976,773,566,17016,-3184,276,1161,2378,-1408
925,848,780,977,787,565,17016,-3368,680,1404,2645,-1309
928,850,766,979,789,570,16584,-3288,392,1261,2517,-1371
931,851,768,982,783,570,16560,-3320,320,1098,2249,-1364
934,853,761,987,775,567,16512,-3356,276,852,1448,-1444
937,854,764,988,770,571,16064,-3256,272,580,523,-1512
940,858,761,982,775,561,16484,-3276,416,429,144,-1602
943,851,777,992,768,567,16316,-3456,576,321,-246,-1574
946,853,768,1008,765,567,16352,-3340,484,472,-569,-1483
949,848,771,988,763,570,16468,-3436,716,677,-349,-1358
952,846,771,985,755,569,16688,-3380,628,669,150,-1331
955,842,781,992,747,569,16516,-3380,612,874,182,-1056
958,843,778,991,723,567,16444,-3304,1232,997,-21,-979
961,846,778,992,703,571,16528,-3092,860,745,-95,-933
964,843,777,1001,718,569,16156,-3212,768,639,-78,-984
967,843,783,994,717,567,16652,-3236,432,649,66,-955
970,843,781,1005,716,568,16784,-3132,856,524,573,-927
973,843,779,1001,709,566,16616,-3160,848,619,987,-815
976,843,768,1002,707,570,16624,-3168,1060,601,1162,-786
979,838,753,1001,709,569,16480,-3200,796,466,1098,-734
982,837,757,1008,701,572,16500,-3044,632,548,942,-606
985,858,764,1010,705,567,16340,-3000,1008,508,1009,-529
988,832,752,1008,706,567,16336,-2980,768,498,875,-480
991,833,748,1011,708,573,16420,-3048,616,618,914,-420
994,847,747,1015,711,573,16396,-2904,904,650,962,-377
997,842,753,1009,709,572,16616,-2848,724,531,985,-338
1000,839,757,1008,719,570,16608,-2800,668,417,729,-289
1003,837,761,1009,725,571,16560,-2840,624,362,526,-236
1006,832,760,1008,721,573,16800,-2744,656,208,636,-163
1009,833,763,1005,719,574,16756,-2692,540,15,440,-114
1012,832,767,1009,718,573,16716,-2668,500,-222,236,-75
1015,832,772,1008,720,575,16692,-2808,412,-349,104,-67
1018,832,771,1017,711,567,16704,-2788,576,-503,-40,-68
1021,834,765,1013,712,575,16688,-2808,548,-632,-135,-44
1024,849,761,1013,704,577,16596,-2772,244,-775,-414,-41
1027,836,757,1012,699,573,16624,-2744,424,-926,-570,-12
1030,837,752,1015,714,573,16420,-2952,508,-997,-616,9
1033,838,755,1012,701,574,16484,-2952,548,-1125,-497,-16
1036,839,755,1015,704,576,16668,-2984,696,-1217,-455,21
1039,843,754,1013,708,575,16788,-2928,536,-1279,-367,50
1042,835,750,1014,707,576,16840,-2992,636,-1291,-322,113
1045,839,753,1019,712,576,16792,-2936,676,-1299,-321,155
1048,839,755,1019,705,575,16812,-2940,772,-1353,-354,207
1051,842,754,1021,699,574,16780,-3028,680,-1329,-428,229
1054,836,753,1023,698,578,16812,-2932,936,-1356,-411,256
1057,837,759,1023,690,576,16792,-3036,832,-1348,-400,275
1060,834,757,1023,687,576,16752,-2928,1000,-1328,-426,321
1063,837,753,1023,677,575,16820,-2916,908,-1333,-434,356
1066,833,763,1023,675,576,16860,-2980,1004,-1384,-415,372
1069,837,762,1023,672,578,16824,-2920,940,-1420,-338,437
1072,836,764,1034,673,576,16924,-2804,1104,-1454,-275,490
1075,835,761,1023,669,581,17000,-2796,856,-1480,-190,482
1078,838,752,1023,673,581,16904,-2732,792,-1497,-107,525
1081,843,749,1055,675,576,16964,-2764,732,-1539,-93,515
1084,846,745,1034,682,579,16836,-2692,768,-1554,-46,504
1087,847,741,1023,683,582,16836,-2756,780,-1526,-48,512
1090,847,743,1023,689,577,16892,-2668,680,-1548,-68,479
1093,845,743,1018,709,579,16800,-2844,748,-1570,-61,480
1096,847,747,1017,695,576,16880,-2900,728,-1540,-45,425
1099,846,739,1014,702,579,16744,-2864,792,-1516,-101,434
1102,857,741,1009,706,583,16756,-2936,640,-1441,-526,480
1105,834,741,1012,713,579,16832,-3096,724,-1352,-347,508
1108,839,742,1008,718,581,16780,-2948,744,-1361,-377,496
1111,837,742,1012,722,580,16972,-3072,932,-1337,-166,416
1114,836,751,1006,725,579,17104,-3040,952,-1338,-120,347
1117,832,752,1008,736,586,16784,-3256,868,-1273,-449,393
1120,824,752,1007,736,587,17084,-3116,1152,-1305,-565,359
1123,832,754,1008,741,586,17232,-3104,1240,-1289,-233,315
1126,834,768,1008,740,591,17412,-3256,1216,-1189,-41,298
1129,836,782,1006,735,582,17252,-3276,992,-1108,-282,367
1132,838,766,1002,725,585,17296,-3216,1084,-1161,-297,343
1135,838,763,1023,720,585,17280,-3132,1056,-1123,-221,303
1138,839,763,1007,710,587,17392,-3260,1028,-1163,-212,261
1141,843,762,1005,695,589,17296,-3260,1040,-1154,-238,248
1144,845,758,1004,692,585,17192,-3188,1076,-1073,-177,193
1147,848,767,1008,690,587,17132,-3272,1036,-987,-161,186
1150,848,771,1008,689,587,17116,-3192,1044,-970,-130,84
1153,847,762,1008,688,590,17260,-3208,1004,-873,-168,33
1156,846,757,1008,688,591,17120,-3100,928,-686,-94,-15
1159,848,757,1013,687,590,17184,-3040,872,-584,26,-59
1162,847,767,1009,688,587,17096,-3080,804,-447,2,-128
1165,852,762,1008,688,591,17064,-3112,604,-377,15,-223
1168,846,757,1008,689,592,17084,-3124,732,-255,32,-273
1171,851,766,1008,688,590,17080,-3168,652,-127,26,-292
1174,848,768,1007,691,589,17004,-3028,648,-47,10,-375
1177,848,768,1006,699,590,17012,-3116,784,99,62,-388
1180,848,766,1002,701,590,17256,-2992,732,193,87,-393
1183,868,768,1007,704,591,16964,-3056,964,248,103,-470
1186,848,768,1003,705,592,17140,-3048,992,347,134,-467
1189,851,763,1002,713,591,16996,-2924,928,429,112,-487
1192,848,768,999,720,590,17140,-2988,1088,413,106,-474
1195,848,773,991,722,590,17172,-2764,1136,385,169,-517
1198,847,775,992,722,592,17160,-2872,1088,418,143,-539
1201,848,770,990,731,592,17148,-2788,972,500,143,-517
1204,850,775,993,733,593,17188,-2644,1144,343,268,-533
1207,848,774,991,734,595,17116,-2740,1216,424,226,-584
1210,849,765,987,725,593,17004,-2824,1156,474,94,-550
1213,848,754,989,717,592,17232,-2556,1048,355,125,-589
1216,848,748,999,724,592,17108,-2472,984,374,80,-584
1219,847,741,999,721,592,17052,-2472,1032,325,21,-584
1222,850,743,997,720,592,17020,-2484,1032,272,-9,-567
1225,849,740,997,720,592,17012,-2532,856,246,44,-558
1228,850,746,1004,723,592,16848,-2636,1016,201,-38,-558
1231,855,752,1003,717,592,16896,-2676,1084,100,76,-614
1234,850,757,999,709,592,16856,-2724,1128,120,-32,-499
1237,849,765,1003,709,592,16716,-2768,1072,209,-182,-426
1240,848,768,1006,709,592,16792,-2724,1076,232,-5,-429
1243,848,775,1002,709,592,16844,-2680,984,107,-156,-377
1246,848,771,1007,710,592,16732,-2632,1200,132,-280,-374
1249,847,773,1005,713,595,16852,-2624,1132,25,-187,-408
1252,846,766,1002,720,592,17080,-2716,1292,36,87,-416
1255,859,767,1007,720,592,16980,-2740,1272,80,127,-360
1258,848,767,997,720,594,17132,-2484,1308,-187,401,-446
1261,835,757,992,723,595,17124,-2700,1360,33,468,-344
1264,862,758,994,727,597,17144,-2464,1240,-283,524,-390
1267,847,763,995,730,595,17200,-2420,1124,-62,359,-333
1270,846,763,991,731,593,17080,-2436,1100,-173,234,-287
1273,848,765,995,729,594,17096,-2440,1132,-229,167,-235
1276,848,761,992,730,597,17020,-2380,1044,-290,76,-245
1279,848,752,993,733,595,16952,-2400,1196,-240,56,-212
1282,852,765,993,733,597,17040,-2400,1076,-372,35,-251
1285,863,761,994,739,592,17056,-2316,1088,-633,82,-231
1288,850,763,994,736,593,17068,-2464,944,-333,-18,-221
1291,851,768,993,729,598,17092,-2252,992,-605,-45,-233
1294,848,774,983,733,599,16944,-2140,1028,-611,-96,-174
1297,848,773,994,735,601,17080,-2084,716,-728,-57,-185
1300,853,773,988,736,598,16932,-2360,952,-812,-219,-219
1303,850,768,996,737,597,16964,-2268,1028,-1048,-236,-272
1306,847,771,993,742,598,16988,-2364,1016,-1030,-220,-296
1309,851,761,997,742,598,16868,-2404,1120,-1042,-309,-284
1312,851,773,992,747,597,17020,-2416,1152,-1168,-269,-330
1315,854,775,994,752,600,17000,-2452,1088,-1176,-317,-288
1318,857,772,996,754,597,16976,-2396,1180,-1305,-308,-316
1321,852,767,991,759,601,17000,-2512,956,-1260,-329,-311
1324,858,772,995,765,598,16976,-2540,1216,-1266,-302,-305
1327,850,766,997,768,598,16960,-2572,1176,-1288,-258,-319
1330,864,767,1002,766,602,17088,-2472,1048,-1278,-189,-307
1333,848,770,994,759,599,16928,-2584,1140,-1249,-152,-294
1336,852,768,993,756,602,16924,-2620,1124,-1198,-115,-261
1339,843,765,990,762,606,17020,-2628,1168,-1239,-37,-271
1342,849,761,995,761,601,17012,-2620,1200,-1235,42,-252
1345,848,762,994,763,604,16880,-2648,1292,-1263,54,-257
1348,845,766,990,767,598,16948,-2756,1180,-1149,35,-264
1351,848,768,989,767,599,16924,-2672,1368,-1298,182,-293
1354,848,759,991,773,605,17016,-2536,1160,-1271,136,-277
1357,848,767,978,774,603,16968,-2608,1264,-1229,190,-268
1360,848,765,979,777,607,17092,-2640,1104,-1246,229,-270
1363,847,773,981,774,603,17096,-2604,1108,-1290,20,-227
1366,848,771,976,771,597,17008,-2552,1152,-1290,-99,-189
1369,844,768,990,771,603,17280,-2512,1072,-1283,167,-207
1372,843,772,975,772,605,17324,-2616,1176,-1320,340,-265
1375,847,779,976,771,606,17172,-2676,1000,-1369,198,-308
1378,848,777,976,777,608,17188,-2588,1000,-1346,263,-351
1381,848,784,964,774,600,17132,-2664,1176,-1382,308,-367
1384,838,782,967,779,605,17156,-2716,920,-1376,171,-397
1387,847,782,976,774,606,17096,-2716,1092,-1369,194,-348
1390,848,784,973,766,605,17100,-2828,1160,-1349,244,-364
1393,847,784,976,761,607,17112,-2652,1148,-1305,277,-347
1396,848,782,975,752,603,17072,-2776,1044,-1280,247,-341
1399,848,783,973,748,603,17036,-2692,1272,-1324,252,-378
1402,848,783,976,745,606,17028,-2752,1144,-1301,221,-390
1405,848,783,975,748,605,16988,-2748,1280,-1337,134,-398
1408,843,779,973,753,609,17008,-2828,1148,-1333,85,-418
1411,837,773,976,755,607,17184,-2680,1108,-1397,194,-450
1414,845,780,972,758,603,17096,-2736,1180,-1390,302,-459
1417,844,774,967,781,608,17120,-2772,1304,-1381,495,-474
1420,845,773,971,762,609,17072,-2724,1256,-1365,496,-470
1423,846,769,976,774,605,17028,-2636,1040,-1332,445,-460
1426,843,775,973,775,605,17024,-2728,1112,-1316,358,-477
1429,846,779,969,772,602,16972,-2768,964,-1276,368,-481
1432,842,784,969,775,605,17020,-2888,1004,-1194,482,-490
1435,843,785,964,774,609,17192,-2824,1004,-1190,517,-505
1438,836,790,965,783,607,17056,-2788,996,-1169,468,-503
1441,843,793,962,787,607,17084,-2884,1116,-1150,480,-508
1444,841,789,960,789,608,17176,-2796,928,-1110,442,-528
1447,845,785,962,787,611,17016,-2896,684,-1094,355,-517
1450,848,786,972,788,610,17020,-2944,820,-1088,311,-565
1453,843,786,976,784,609,17052,-3032,840,-1060,320,-577
1456,848,784,963,784,608,16976,-3084,864,-1029,317,-613
1459,854,784,963,786,609,17128,-2980,724,-1006,361,-642
1462,850,789,961,784,607,17052,-3020,884,-945,387,-651
1465,853,787,967,784,610,16992,-3060,672,-932,315,-694
1468,859,794,967,782,615,16840,-2940,840,-872,299,-747
1471,851,806,971,780,608,17012,-3088,1132,-842,258,-777
1474,857,789,972,775,609,16996,-3100,940,-837,292,-795
1477,859,794,966,767,613,16972,-3036,1132,-753,271,-826
1480,869,789,973,767,610,16948,-3156,1088,-698,272,-870
1483,848,791,974,757,614,17020,-3088,984,-649,315,-845
1486,847,784,976,752,614,16920,-3064,1076,-562,243,-813
1489,848,785,976,753,609,16768,-3108,992,-506,148,-818
1492,848,784,978,767,613,16912,-2908,988,-419,40,-780
1495,850,784,980,753,614,16948,-2904,1028,-387,-2,-805
1498,847,782,979,759,610,17012,-3008,1024,-282,23,-765
1501,848,782,976,762,612,16860,-2988,976,-212,91,-731
1504,849,782,972,770,612,17112,-3036,880,-223,154,-763
1507,848,780,973,767,611,16836,-3188,760,-9,42,-595
1510,848,783,975,778,614,17036,-3024,1044,-124,276,-707
1513,842,784,969,779,612,16988,-3176,696,-12,334,-730
1516,847,779,974,779,619,17236,-2964,756,11,504,-735
1519,835,784,974,780,611,17024,-3116,844,47,426,-676
1522,848,784,975,775,608,16940,-3108,740,5,437,-723
1525,847,784,975,782,613,16876,-3148,868,35,348,-739
1528,848,785,974,781,613,16920,-3104,644,23,286,-751
1531,849,790,975,778,618,17000,-3140,852,152,249,-690
1534,847,810,976,775,613,16848,-3136,996,156,301,-728
1537,848,784,977,778,608,16852,-3140,772,223,353,-691
1540,848,783,976,769,609,16876,-3052,808,201,432,-764
1543,848,769,983,767,609,16672,-3032,644,243,209,-724
1546,848,759,981,765,611,17104,-2812,512,226,442,-658
1549,848,765,977,751,614,16672,-2992,764,337,273,-704
1552,846,749,991,745,610,16668,-2944,564,333,58,-675
1555,844,763,992,736,609,16836,-2888,664,349,86,-657
1558,846,762,986,733,615,16744,-2932,660,392,130,-626
1561,847,760,991,732,608,16652,-2784,592,410,145,-611
1564,841,758,994,729,612,16688,-2912,596,481,95,-580
1567,848,756,992,729,611,16556,-2800,552,485,31,-564
1570,848,755,997,731,609,16676,-2796,500,596,-20,-487
1573,847,759,995,727,609,16700,-2832,640,662,-83,-454
1576,848,752,989,726,611,16656,-2736,700,731,-119,-386
1579,849,755,995,730,616,16724,-2748,540,730,-86,-357
1582,848,752,995,731,612,16784,-2636,500,701,-14,-270
1585,846,752,997,735,606,16836,-2872,600,759,-108,-284
1588,846,754,997,733,609,16768,-2700,616,734,-163,-258
1591,846,753,998,731,611,16872,-2780,568,739,-214,-215
1594,847,757,1001,731,612,16916,-2724,648,606,-212,-180
1597,839,756,998,725,617,16940,-2524,368,572,-222,-133
1600,841,754,997,725,611,16688,-2692,700,555,-401,-169
1603,844,748,998,722,615,16904,-2700,640,516,-422,-151
1606,846,758,1005,722,610,16976,-2628,552,489,-375,-138
1609,846,759,1005,720,615,16864,-2524,508,536,-390,-88
1612,847,758,1003,723,613,16872,-2456,584,578,-358,-122
1615,847,759,1003,727,610,16844,-2468,536,585,-380,-101
1618,843,764,1006,730,608,16912,-2380,384,579,-389,-108
1621,841,757,1007,725,615,16748,-2360,520,552,-419,-73
1624,838,757,1008,723,613,16864,-2376,296,572,-521,-59
1627,840,752,1005,723,613,16728,-2580,476,521,-534,-102
1630,837,749,1013,720,610,16776,-2420,592,490,-587,-81
1633,846,749,1011,719,610,16896,-2448,640,504,-722,-69
1636,848,761,1013,715,613,16884,-2404,672,455,-700,-30
1639,848,746,1013,707,618,16928,-2276,976,355,-696,32
1642,848,737,1019,704,615,17020,-2268,936,318,-622,46
1645,847,730,1012,708,619,16984,-2464,980,296,-583,70
1648,848,731,1017,708,611,17012,-2472,780,312,-571,103
1651,848,734,1015,714,613,17016,-2324,812,212,-507,109
1654,848,720,1014,709,618,16964,-2436,704,299,-531,168
1657,848,731,1012,712,618,16916,-2308,728,275,-495,162
1660,845,730,1008,715,621,17036,-2408,784,232,-459,179
1663,846,736,1008,721,614,17020,-2400,764,213,-453,152
1666,861,729,1001,719,618,17032,-2384,864,200,-472,173
1669,842,732,1002,720,622,16988,-2420,776,213,-432,160
1672,845,733,1007,720,620,17040,-2396,716,246,-506,160
1675,842,730,999,720,617,17020,-2452,696,285,-494,113
1678,841,725,1005,727,614,17120,-2376,800,278,-505,106
1681,845,730,1002,725,618,17052,-2324,904,258,-527,91
1684,843,727,1004,732,619,17008,-2356,960,265,-596,83
1687,843,727,996,727,624,17116,-2356,920,188,-647,45
1690,838,725,1001,731,619,17104,-2168,920,88,-683,32
1693,841,724,999,729,620,17256,-2196,1316,59,-690,-12
1696,838,727,994,722,614,17248,-2156,1120,10,-653,31
1699,838,729,993,719,616,17232,-2164,1284,-39,-635,-6
1702,842,731,999,720,622,17256,-2232,1212,-76,-552,-4
1705,845,738,1001,719,623,17252,-2132,1256,-109,-472,-16
1708,840,741,993,719,621,17220,-2120,1392,-108,-413,-24
1711,846,744,999,715,617,17056,-2052,1140,-164,-342,-6
1714,846,747,995,714,619,17152,-2076,1160,-165,-272,-24
1717,847,746,996,714,619,17096,-1980,1096,-187,-220,-22
1720,847,750,997,715,624,16992,-1948,1160,-218,-166,-1
1723,846,751,997,718,619,17032,-2108,1212,-241,-157,-8
1726,848,752,997,720,619,17088,-1940,1212,-250,-111,-9
1729,844,752,995,715,623,17196,-1896,1288,-245,-80,10
1732,844,752,992,716,621,17036,-1888,1264,-295,-85,-21
1735,848,765,993,717,623,17156,-1880,1288,-231,-76,2
1738,846,754,993,714,624,17256,-1932,1072,-214,-78,17
1741,845,758,986,710,620,17220,-1724,1064,-260,-69,30
1744,848,765,987,711,623,17216,-1820,1332,-228,-106,14
1747,848,762,989,715,623,17128,-1752,1120,-334,-156,43
1750,844,763,985,713,624,17400,-1500,1320,-471,-159,37
1753,845,767,982,719,623,17496,-1780,1156,-528,-160,-2
1756,847,767,984,720,619,17272,-1692,1184,-593,-186,33
1759,841,768,978,723,624,17224,-1748,1080,-718,-218,6
1762,843,768,981,733,619,17412,-1580,1148,-791,-178,-20
1765,842,768,979,731,623,17264,-1568,1032,-924,-186,-15
1768,849,779,978,733,623,17184,-1560,1348,-903,-232,16
1771,848,772,984,746,624,17452,-1396,920,-986,-201,46
1774,848,777,976,742,623,17124,-1552,1156,-1023,-205,-20
1777,839,767,978,746,623,17112,-1488,1364,-1031,-240,-37
1780,842,771,976,750,624,17208,-1484,1228,-1128,-235,-28
1783,843,771,979,751,625,17260,-1532,1100,-1212,-185,-19
1786,846,774,976,757,623,17152,-1576,1316,-1249,-180,-38
1789,848,775,977,755,625,17268,-1572,1332,-1359,-59,-12
1792,847,775,978,761,624,17164,-1520,1164,-1462,-54,19
1795,847,773,981,768,624,17300,-1508,1124,-1526,-33,6
1798,849,781,977,768,624,17296,-1468,1108,-1634,17,28
1801,847,773,976,769,624,17320,-1664,1140,-1695,92,40
1804,848,784,976,771,621,17280,-1576,1080,-1831,148,45
1807,848,773,976,773,625,17308,-1612,1048,-1895,149,104
1810,849,782,976,775,624,17184,-1692,1112,-1991,141,96
1813,851,775,979,775,625,17196,-1592,1120,-2102,147,117
1816,848,781,976,771,629,17192,-1656,1080,-2162,150,120
1819,851,782,975,775,624,17156,-1668,988,-2280,138,106
1822,843,784,975,771,624,17272,-1672,1064,-2360,170,65
1825,848,784,976,768,624,17228,-1644,1024,-2425,216,71
1828,847,786,975,777,624,17236,-1744,1192,-2498,251,57
1831,848,784,976,773,626,17184,-1784,1120,-2576,248,52
1834,847,797,976,784,624,17264,-1784,1160,-2649,282,36
1837,846,790,980,775,626,17268,-1760,1076,-2677,276,24
1840,848,788,978,777,624,17112,-1900,1192,-2739,279,-9
1843,848,789,977,784,624,17204,-2008,1028,-2802,307,-22
1846,850,790,976,781,628,17312,-1948,1036,-2861,286,-38
1849,847,797,979,781,624,17180,-1964,948,-2934,303,-57
1852,849,790,980,774,625,17116,-2060,992,-2948,276,-37
1855,849,798,985,773,628,17180,-1996,928,-2974,306,-72
1858,851,793,976,774,625,17068,-2056,1088,-2992,314,-83
1861,854,795,977,773,627,17076,-2072,964,-2964,347,-88
1864,854,800,978,770,627,17128,-2176,804,-2949,363,-108
1867,855,786,978,773,623,17020,-2228,976,-2916,359,-107
1870,853,788,976,777,625,17044,-2140,944,-2896,350,-127
1873,854,793,975,782,624,17036,-2400,1080,-2874,395,-106
1876,846,796,976,784,629,17028,-2260,924,-2833,397,-110
1879,852,787,975,784,630,16980,-2356,956,-2824,433,-106
1882,855,795,976,784,624,16968,-2396,996,-2812,425,-118
1885,849,791,975,789,624,17036,-2392,1012,-2777,449,-124
1888,852,786,973,793,630,16844,-2484,976,-2766,399,-145
1891,849,791,976,789,631,17000,-2424,972,-2736,388,-156
1894,850,793,963,788,629,17104,-2528,960,-2714,450,-185
1897,848,801,981,797,627,16984,-2500,1240,-2677,419,-170
1900,847,794,973,799,627,17056,-2612,1120,-2670,494,-160
1903,848,796,971,786,634,17004,-2628,1096,-2620,525,-159
1906,850,799,967,789,630,17104,-2552,948,-2605,487,-111
1909,846,798,965,784,630,16984,-2612,900,-2553,466,-93
1912,847,796,967,784,629,16964,-2656,864,-2530,332,-95
1915,843,797,970,784,626,17012,-2696,860,-2499,345,-88
1918,847,790,970,781,627,17072,-2648,856,-2485,407,-97
1921,845,800,965,779,630,16956,-2692,828,-2507,336,-84
1924,847,784,963,776,634,17060,-2892,904,-2488,337,-63
1927,845,784,967,775,631,17096,-2760,688,-2518,338,-95
1930,848,782,969,774,627,16960,-2808,652,-2521,288,-80
1933,846,784,971,768,627,16888,-2868,720,-2523,247,-76
1936,848,781,965,766,627,17032,-2852,580,-2514,291,-66
1939,849,784,965,763,625,17000,-2892,556,-2483,292,-63
1942,848,785,965,761,626,16964,-2868,628,-2456,271,-67
1945,851,784,974,755,630,16856,-2876,708,-2392,269,-47
1948,849,784,970,752,631,16772,-2864,712,-2362,255,-33
1951,848,781,970,752,626,16868,-2824,788,-2304,283,-53
1954,848,779,975,749,628,16708,-2848,704,-2258,279,-35
1957,854,781,975,752,631,16744,-2788,776,-2178,242,-68
1960,850,776,980,752,626,16704,-2680,932,-2145,256,-61
1963,850,781,979,756,627,16864,-2812,704,-2057,258,-65
1966,849,784,979,754,634,16984,-2692,780,-2034,294,-70
1969,848,781,978,755,631,16876,-2804,904,-1971,290,-69
1972,850,785,977,769,630,16840,-2848,828,-1906,285,-56
1975,849,784,983,762,628,16836,-2796,840,-1868,289,-50
1978,851,778,979,766,629,16740,-2828,696,-1830,223,-52
1981,848,771,977,763,628,16804,-2916,716,-1795,178,-20
1984,842,778,977,761,629,16772,-2904,872,-1788,129,-45
1987,848,781,981,766,631,16792,-2912,872,-1745,63,-64
1990,848,781,976,767,628,16852,-3024,720,-1717,-1,-47
1993,848,780,980,774,626,16968,-3036,728,-1672,-29,-55
1996,846,779,978,771,633,16992,-3064,700,-1624,-54,-63
1999,845,779,978,773,629,17000,-3184,844,-1600,-83,-49
2002,848,775,982,767,627,17028,-3152,668,-1587,-87,-64
2005,846,778,987,756,633,17160,-3164,700,-1574,-100,-65
2008,848,775,989,752,630,17092,-3272,904,-1558,-102,-59
2011,844,774,982,747,631,17076,-3308,876,-1543,-89,-57
2014,845,778,990,742,629,17104,-3200,812,-1541,-124,-25
2017,848,779,983,742,635,17060,-3244,920,-1513,-129,-35
2020,848,779,989,741,634,16984,-3292,760,-1470,-111,-65
2023,845,775,992,743,629,16936,-3208,868,-1399,-125,-40
2026,848,774,987,747,629,16844,-3344,776,-1324,-92,-56
2029,848,774,996,743,630,16816,-3344,732,-1276,-89,-41
2032,848,771,986,738,631,16772,-3276,916,-1191,-97,-89
2035,848,771,982,751,635,16744,-3308,836,-1134,-93,-68
2038,847,770,987,753,635,16796,-3280,840,-1033,-94,-54
2041,846,768,989,752,629,16680,-3240,740,-980,-93,-42
2044,845,762,987,739,631,16800,-3180,956,-901,-133,-27
2047,848,768,986,752,626,16820,-3156,936,-821,-147,-24
2050,839,766,976,746,635,16900,-3140,868,-727,-139,-7
2053,842,767,985,746,637,16816,-3184,816,-630,-113,22
2056,844,767,987,749,627,16904,-3156,856,-562,-106,32
2059,845,771,981,746,633,16980,-3056,736,-497,-64,18
2062,842,769,983,750,629,17020,-3148,752,-416,-60,38
2065,844,766,987,747,631,16912,-3120,776,-354,-90,33
2068,845,766,985,750,634,16940,-3068,820,-315,-130,42
2071,841,765,986,752,629,17004,-3136,912,-266,-145,28
2074,848,767,987,755,628,17032,-3224,1204,-251,-156,24
2077,843,767,988,757,631,17008,-3140,832,-213,-187,10
2080,845,769,984,774,631,16984,-3156,816,-208,-213,-5
2083,845,767,983,758,638,17056,-2932,924,-160,-221,26
2086,832,766,988,755,630,17064,-3000,948,-147,-228,0
2089,839,767,983,752,629,17084,-2912,912,-123,-253,-28
2092,857,762,983,751,632,17044,-2884,828,-83,-265,-40
2095,848,758,986,750,633,17024,-2848,820,-107,-270,-88
2098,847,751,993,751,637,17064,-2832,908,-95,-227,-87
2101,839,755,991,753,637,16972,-2808,1080,-76,-250,-106
2104,848,752,991,756,630,16836,-2820,932,-72,-259,-126
2107,847,752,987,752,634,16968,-2800,936,-67,-242,-130
2110,847,756,993,752,630,16912,-2712,880,-75,-230,-130
2113,848,756,993,752,633,16924,-2624,596,-47,-242,-133
2116,848,743,987,743,631,16928,-2652,756,-55,-225,-133
2119,849,757,985,746,635,16904,-2612,844,-47,-238,-101
2122,850,752,983,742,635,16892,-2632,660,-42,-236,-96
2125,848,755,998,742,631,16904,-2672,936,-48,-246,-103
2128,848,755,984,746,631,16996,-2648,876,-63,-234,-91
2131,848,754,987,749,631,17020,-2684,872,-59,-227,-82
2134,847,756,1005,749,633,17004,-2600,788,-71,-220,-96
2137,848,758,986,743,633,16928,-2608,876,-80,-223,-129
2140,848,761,979,746,636,16976,-2488,892,-78,-218,-98
2143,848,758,981,745,636,17048,-2644,884,-84,-197,-83
2146,844,759,983,743,635,16916,-2556,944,-94,-199,-109
2149,843,765,982,738,633,16984,-2572,1132,-89,-228,-113
2152,845,762,987,751,633,16952,-2444,1096,-98,-232,-121
2155,843,757,987,752,630,17064,-2468,984,-74,-250,-119
2158,844,763,985,753,637,17064,-2556,1040,-109,-220,-128
2161,846,764,991,753,639,17132,-2584,1048,-132,-223,-128
2164,834,753,986,752,635,17188,-2552,928,-113,-193,-140
2167,848,765,987,752,631,17180,-2436,924,-173,-186,-114
2170,848,764,981,752,638,17228,-2572,1016,-163,-182,-142
2173,846,763,981,746,633,17136,-2564,880,-191,-207,-135
2176,845,762,983,736,633,17096,-2636,1004,-174,-189,-142
2179,847,762,983,743,631,17020,-2576,880,-173,-241,-146
2182,848,766,988,742,633,17008,-2580,1060,-170,-216,-156
2185,849,759,986,738,637,17028,-2584,1076,-150,-212,-149
2188,848,763,991,742,635,16904,-2524,1096,-125,-181,-146
2191,848,765,989,743,631,16956,-2528,1036,-115,-162,-143
2194,846,769,1012,748,637,16888,-2540,984,-97,-146,-110
2197,847,767,983,746,633,16976,-2588,1032,-67,-164,-89
2200,848,765,982,752,634,17032,-2508,1108,-43,-176,-72
2203,849,776,986,751,633,17064,-2448,1040,-52,-137,-60
2206,849,768,991,752,633,17104,-2388,1088,-22,-125,-31
2209,843,761,989,753,637,17040,-2348,1052,-8,-155,-27
2212,844,766,983,752,634,17048,-2332,1028,-21,-136,-20
2215,841,763,989,759,638,17180,-2244,1024,-32,-128,25
2218,842,763,985,768,631,17096,-2356,916,-34,-85,30
2221,845,764,989,762,634,17088,-2364,972,-37,-81,27
2224,844,767,983,762,633,16996,-2280,920,-51,-97,26
2227,846,766,989,762,635,17076,-2392,1024,-99,-119,-3
2230,846,753,985,767,633,17088,-2312,1120,-153,-135,11
2233,842,765,985,762,631,17044,-2412,892,-213,-97,20
2236,846,758,982,764,629,17048,-2460,908,-268,-81,11
2239,846,746,982,766,637,17048,-2364,896,-348,-92,7
2242,848,752,979,765,635,17036,-2428,784,-397,-121,4
2245,846,758,979,759,633,17144,-2364,664,-452,-155,-13
2248,859,762,978,761,635,17068,-2380,876,-504,-184,-36
2251,846,759,978,759,635,17060,-2504,1076,-545,-221,-26
2254,846,763,980,759,636,17196,-2404,840,-576,-224,-72
2257,848,763,977,759,634,17068,-2336,1128,-585,-229,-77
2260,848,763,979,754,635,17036,-2436,1184,-612,-232,-114
2263,848,768,991,752,635,17036,-2396,1060,-583,-191,-82
2266,845,768,987,752,637,17020,-2356,988,-580,-165,-86
2269,847,768,983,750,639,17084,-2308,1200,-594,-131,-64
2272,842,769,986,752,641,17088,-2288,1108,-587,-107,-79
2275,846,773,986,755,638,17060,-2148,976,-597,-102,-72
2278,849,768,987,756,640,17052,-2172,1000,-622,-66,-68
2281,848,769,983,767,638,16992,-2256,1036,-624,-55,-54
2284,830,771,982,761,637,17000,-2188,996,-657,-14,-51
2287,846,768,983,755,643,16984,-2240,948,-630,-22,-26
2290,845,767,982,753,642,16988,-2264,884,-614,-4,-18
2293,851,769,983,752,642,17124,-2308,832,-632,22,-9
2296,851,769,989,753,643,17008,-2284,1060,-629,9,-11
2299,847,767,987,759,640,16988,-2460,904,-624,22,-36
2302,846,765,988,754,643,16896,-2420,988,-651,21,-1
2305,845,767,983,762,640,17020,-2404,956,-662,14,-32
2308,848,765,986,757,646,17092,-2464,900,-695,-24,17
2311,847,771,977,758,645,17168,-2500,976,-705,-64,-16
2314,848,770,979,761,644,17072,-2508,964,-723,-59,2
2317,847,769,987,757,644,17148,-2472,1132,-748,-95,-18
2320,844,769,983,761,644,17076,-2484,924,-783,-92,3
2323,845,767,990,757,642,17080,-2464,1068,-752,-79,-37
2326,843,766,981,753,649,17156,-2488,960,-765,-131,-49
2329,845,767,1001,757,643,17144,-2456,1056,-732,-123,-51
2332,845,764,985,757,643,16988,-2492,1072,-706,-116,-75
2335,847,767,981,755,646,17056,-2472,1144,-659,-138,-85
2338,847,766,985,754,647,17044,-2352,1008,-664,-130,-83
2341,848,765,986,758,647,17156,-2400,1000,-675,-118,-106
2344,841,768,979,759,649,17116,-2428,760,-664,-133,-80
2347,844,768,986,759,644,17100,-2404,824,-712,-141,-95
2350,848,766,979,755,650,17156,-2472,904,-692,-146,-70
2353,858,771,976,755,646,17052,-2380,924,-681,-150,-52
2356,846,770,976,752,647,17080,-2340,804,-698,-87,-47
2359,848,767,979,774,651,17128,-2380,824,-703,-67,-68
2362,850,758,976,755,647,17192,-2340,964,-668,-32,-67
2365,848,773,976,759,649,17076,-2360,808,-656,-16,-46
2368,849,775,981,763,648,17104,-2316,980,-640,14,-55
2371,847,775,976,757,650,17072,-2336,936,-644,57,-79
2374,848,770,983,759,647,17072,-2320,940,-633,64,-44
2377,845,775,978,762,647,17104,-2336,888,-648,92,-70
2380,850,775,976,763,647,17092,-2328,1020,-638,79,-72
2383,848,771,981,767,648,16988,-2324,904,-640,94,-51
2386,847,767,976,767,647,17040,-2344,968,-630,92,-57
2389,848,767,975,762,650,17152,-2384,896,-682,115,-61
2392,848,767,976,753,644,17184,-2248,1024,-716,152,-63
2395,848,764,976,756,646,17184,-2356,968,-772,113,-57
2398,853,766,976,752,644,17232,-2328,936,-819,107,-45
2401,849,778,976,754,647,17172,-2388,972,-880,94,-73
2404,852,773,977,752,651,17204,-2420,828,-898,85,-81
2407,858,778,978,752,649,17044,-2428,964,-929,63,-72
2410,849,772,982,752,645,17032,-2488,872,-931,64,-129
2413,848,771,980,753,645,16960,-2416,948,-921,69,-154
2416,848,773,976,750,644,17012,-2508,840,-923,67,-142
2419,848,768,977,751,650,17044,-2380,916,-894,78,-183
2422,850,769,978,750,649,17064,-2472,896,-905,65,-152
2425,849,768,976,755,646,17056,-2400,940,-902,103,-160
2428,856,771,973,761,645,16968,-2340,884,-919,113,-152
2431,852,779,978,768,650,17064,-2396,932,-906,86,-154
2434,851,774,976,761,645,17176,-2368,912,-931,139,-134
2437,853,775,977,755,649,17104,-2296,872,-981,135,-147
2440,854,775,976,758,651,16984,-2384,880,-964,152,-123
2443,850,780,975,766,645,17052,-2392,832,-966,186,-134
2446,854,781,969,765,647,17092,-2288,960,-988,176,-147
2449,853,782,976,768,651,17136,-2380,768,-969,209,-121
2452,851,783,965,770,649,17052,-2360,976,-992,227,-119
2455,851,784,971,775,647,17096,-2260,700,-987,231,-129
2458,849,784,973,757,646,17136,-2420,944,-984,226,-147
2461,851,789,966,768,649,17088,-2408,744,-1010,219,-129
2464,850,784,973,767,646,17008,-2412,768,-1026,227,-149
2467,850,790,975,765,653,17028,-2464,788,-1043,193,-154
2470,849,783,965,762,653,17052,-2384,736,-1088,167,-139
2473,852,793,965,765,647,17048,-2504,820,-1089,165,-149
2476,853,789,967,764,647,16948,-2548,1020,-1141,203,-154
2479,853,787,975,758,649,16980,-2500,952,-1148,177,-156
2482,851,785,972,760,651,16932,-2592,928,-1190,182,-144
2485,851,786,972,762,646,16856,-2524,988,-1194,205,-156
2488,853,784,965,764,647,16896,-2740,860,-1214,178,-161
2491,848,784,966,758,650,17016,-2640,876,-1234,192,-144
2494,848,786,975,762,650,16992,-2688,792,-1223,207,-120
2497,847,781,975,763,654,17032,-2744,860,-1242,171,-140
2500,846,784,969,762,650,16956,-2788,984,-1250,154,-157
2503,848,784,972,755,649,17048,-2780,972,-1264,144,-132
2506,843,784,971,755,653,17020,-2804,920,-1238,143,-162
2509,843,787,973,755,651,17020,-2740,684,-1217,189,-125
2512,848,790,976,758,655,17012,-2748,736,-1196,180,-155
2515,834,784,976,753,658,17020,-2780,672,-1185,218,-177
2518,848,780,977,752,656,17044,-2744,896,-1156,182,-154
2521,846,784,976,752,661,16908,-2668,880,-1109,188,-177
2524,846,778,976,749,656,16980,-2792,668,-1083,167,-171
2527,851,777,977,750,663,16964,-2700,740,-1012,132,-174
2530,848,775,977,750,662,17036,-2704,800,-956,162,-169
2533,848,771,1007,750,662,17040,-2720,740,-929,171,-155
2536,845,778,978,749,667,16936,-2704,928,-890,193,-158
2539,850,780,983,750,671,16920,-2684,708,-809,162,-160
2542,846,779,977,747,675,16936,-2736,832,-763,147,-163
2545,851,781,977,748,675,16868,-2736,756,-720,104,-169
2548,858,778,976,749,675,17000,-2748,1016,-720,88,-154
2551,853,778,979,749,677,16988,-2704,892,-688,73,-146
2554,843,774,982,747,687,17028,-2744,908,-658,75,-142
2557,850,773,981,751,687,16936,-2796,840,-649,59,-147
2560,848,771,976,750,690,16996,-2772,976,-635,61,-128
2563,848,767,978,752,689,17108,-2772,744,-629,73,-141
2566,854,771,977,750,691,17168,-2720,624,-662,62,-131
2569,850,771,975,750,704,16968,-2776,828,-657,54,-138
2572,848,775,976,752,698,17020,-2836,728,-661,76,-120
2575,848,774,973,750,707,17088,-2808,796,-662,75,-122
2578,848,776,975,749,711,16952,-2816,860,-687,75,-117
2581,846,773,976,751,717,17032,-2788,716,-675,79,-142
2584,848,769,976,749,721,16908,-2800,948,-684,34,-121
2587,847,775,976,750,720,16960,-2768,980,-686,53,-123
2590,845,768,976,751,727,16852,-2780,888,-656,37,-122
2593,846,773,976,752,731,16932,-2756,780,-648,32,-130
2596,844,774,1010,747,740,16932,-2660,908,-628,54,-137
2599,839,780,986,747,743,16880,-2660,892,-621,47,-102
2602,844,781,980,751,749,17044,-2696,828,-574,36,-99
2605,848,779,983,747,752,16864,-2628,864,-582,62,-113
2608,838,771,983,735,767,16996,-2524,900,-526,38,-92
2611,838,769,987,738,768,16916,-2536,864,-550,46,-71
2614,846,770,988,740,775,16956,-2540,848,-571,40,-74
2617,846,776,976,740,784,17084,-2568,900,-554,41,-68
2620,847,779,982,745,791,16984,-2496,668,-594,62,-65
2623,846,761,987,752,805,17080,-2552,960,-571,37,-73
2626,847,777,979,745,815,17016,-2520,796,-602,59,-43
2629,848,773,987,748,827,17068,-2484,988,-597,64,-49
2632,848,773,983,752,833,16980,-2432,872,-587,20,-27
2635,846,774,981,743,859,16912,-2484,908,-611,10,-28
2638,847,768,977,752,924,17056,-2468,828,-615,4,-25
2641,847,775,983,746,994,17060,-2440,796,-607,-44,-14
2644,847,778,982,746,1079,17064,-2532,832,-639,-59,-47
2647,847,773,985,745,1168,17052,-2460,936,-616,-79,-36
2650,847,774,980,742,1247,16936,-2408,724,-619,-124,-48
2653,847,773,980,738,1334,17020,-2580,1032,-651,-123,-49
2656,848,770,978,735,1421,17156,-2536,900,-663,-118,-57
2659,848,768,983,735,1493,17024,-2436,1052,-704,-120,-83
2662,848,767,981,732,1584,17108,-2488,1048,-738,-160,-77
2665,849,762,979,736,1649,17016,-2456,1220,-779,-135,-81
2668,843,766,983,731,1719,17116,-2472,924,-792,-124,-75
2671,842,767,976,734,1801,17044,-2516,936,-793,-103,-74
2674,839,769,982,735,1847,17172,-2436,944,-807,-42,-80
2677,839,774,981,735,1913,17060,-2436,980,-782,-17,-94
2680,842,770,979,739,1969,17044,-2320,1032,-808,0,-87
2683,844,772,977,740,2015,16940,-2496,1112,-798,-38,-76
2686,839,767,978,741,2086,16972,-2296,1024,-821,-13,-82
2689,844,772,982,746,2126,17044,-2444,1052,-817,12,-75
2692,847,771,982,741,2166,16988,-2372,1024,-820,52,-85
2695,833,769,977,743,2214,16996,-2248,924,-830,27,-76
2698,843,766,983,738,2245,17056,-2384,1148,-827,62,-103
2701,842,767,983,736,2290,17280,-2440,1024,-808,23,-84
2704,837,763,985,736,2329,17108,-2312,1060,-806,-8,-88
2707,845,766,988,735,2357,17112,-2432,1016,-815,-55,-102
2710,843,767,977,731,2399,17032,-2412,1124,-827,-88,-81
2713,847,767,983,735,2416,17064,-2332,1108,-814,-77,-63
2716,847,770,987,741,2443,17072,-2308,1048,-841,-105,-76
2719,847,763,979,745,2480,17044,-2356,1072,-833,-80,-99
2722,843,767,982,746,2497,17068,-2360,992,-852,-90,-89
2725,847,765,979,751,2526,17052,-2332,992,-847,-69,-97
2728,846,761,982,755,2545,17168,-2420,1080,-867,-17,-107
2731,848,768,977,771,2559,17184,-2400,1080,-902,13,-89
2734,848,767,979,766,2599,17184,-2328,1200,-923,37,-141
2737,850,766,982,778,2610,17164,-2276,1088,-937,72,-140
2740,843,775,976,772,2630,17168,-2320,1172,-973,67,-157
2743,849,782,973,786,2640,17200,-2452,1052,-996,81,-142
2746,850,782,976,777,2655,17224,-2356,1092,-984,92,-149
2749,848,784,976,774,2685,17140,-2368,1032,-1015,55,-175
2752,850,784,983,767,2697,16976,-2396,1184,-1011,69,-173
2755,846,782,978,761,2704,17036,-2296,1220,-1009,79,-173
2758,845,782,978,761,2723,17088,-2404,1172,-994,112,-175
2761,843,779,978,759,2731,16988,-2228,1216,-964,144,-155
2764,845,777,978,752,2740,17004,-2388,1116,-963,145,-141
2767,841,777,980,755,2753,16944,-2448,1152,-951,172,-163
2770,843,774,979,754,2765,17068,-2340,1140,-934,185,-154
2773,845,772,979,753,2771,17024,-2376,972,-955,225,-124
2776,845,779,991,752,2783,17064,-2340,1100,-970,215,-137
2779,845,773,976,751,2799,17020,-2352,1304,-980,224,-157
2782,845,771,980,753,2800,17020,-2356,1136,-1000,213,-136
2785,848,773,980,761,2811,16956,-2292,1128,-1010,241,-127
2788,848,784,977,752,2816,17016,-2372,1192,-1040,221,-124
2791,845,772,977,758,2818,17020,-2288,1000,-1047,208,-153
2794,837,769,979,763,2830,17000,-2252,1104,-1056,152,-148
2797,844,775,980,762,2838,16964,-2288,1148,-1053,114,-168
2800,843,777,981,758,2848,16960,-2388,1052,-1067,111,-156
2803,843,774,977,759,2853,17004,-2276,1208,-1104,118,-150
2806,838,776,977,775,2849,17012,-2400,1284,-1088,25,-162
2809,838,775,976,754,2863,16948,-2444,1140,-1132,-47,-170
2812,841,771,982,752,2864,17272,-2400,1048,-1169,10,-143
2815,848,769,982,750,2865,17104,-2468,1300,-1185,-22,-161
2818,841,764,986,752,2870,16932,-2408,1164,-1200,-36,-142
2821,842,766,981,757,2871,17132,-2468,1204,-1176,61,-139
2824,843,767,977,756,2871,17088,-2404,1140,-1133,64,-141
2827,842,767,985,755,2880,17052,-2476,1160,-1089,1,-131
2830,844,767,977,759,2869,17108,-2480,1200,-1104,-23,-141
2833,845,765,979,756,2878,16920,-2488,1188,-1063,-106,-134
2836,842,767,977,757,2879,17096,-2484,988,-1088,-98,-145
2839,843,763,977,761,2881,17084,-2388,1136,-1060,-97,-139
2842,848,764,1167,758,2896,17116,-2460,1128,-1051,-107,-88
2845,841,770,1147,695,2895,17124,-2460,1004,-1079,-76,-108
2848,843,768,954,656,2903,17000,-2456,1228,-1088,-37,-80
2851,843,767,866,727,2911,17208,-2260,1244,-1187,-67,-114
2854,829,764,871,735,2901,17172,-2480,808,-1207,-17,-84
2857,829,757,883,707,2928,17188,-2328,908,-1151,239,7
2860,848,757,879,732,2931,16828,-2284,1056,-1241,234,-146
2863,859,755,955,437,2941,16692,-2372,1192,-1210,108,-261
2866,848,754,841,672,2953,17184,-2472,1056,-1095,101,-97
2869,838,753,837,691,2954,16404,-2592,800,-911,-654,288
2872,839,759,837,705,2971,16712,-2244,796,-1060,-1066,265
2875,821,752,845,704,2983,16680,-2688,1308,-814,-826,352
2878,836,751,832,629,2992,17296,-2320,1448,-909,36,230
2881,861,738,838,988,3007,16956,-2440,1112,-1014,-386,277
2884,867,730,863,979,3001,17124,-2312,1432,-967,101,139
2887,856,741,899,624,3019,17380,-2496,1504,-732,1395,231
2890,850,782,903,492,3035,17440,-2204,1696,-759,2444,97
2893,859,803,885,551,3035,16952,-2184,1200,-746,2065,151
2896,871,750,871,719,3053,16944,-2200,1084,-932,1857,41
2899,867,703,882,768,3056,17052,-2144,1332,-821,2021,112
2902,858,723,917,746,3057,16948,-2176,1184,-1028,1537,43
2905,848,781,947,686,3083,16672,-2212,1140,-1094,1128,141
2908,853,791,941,674,3088,16980,-2344,1536,-1231,1101,187
2911,852,782,912,686,3094,16956,-2340,1212,-1270,654,235
2914,849,755,909,694,3103,16320,-2320,720,-1462,-724,104
2917,848,757,911,689,3099,16704,-2476,940,-1367,-1332,126
2920,843,767,919,671,3120,17020,-2360,1692,-1223,-1109,128
2923,837,780,944,688,3117,17076,-2500,1148,-1264,-1625,206
2926,846,769,942,693,3120,16868,-2620,836,-1187,-2339,282
2929,848,770,930,693,3136,17220,-2444,1152,-1372,-2087,170
2932,852,772,930,693,3132,16868,-2604,1136,-1061,-2406,257
2935,846,769,929,688,3137,17048,-2352,1128,-1081,-2478,234
2938,841,754,939,683,3147,17536,-2184,736,-1060,-2136,295
2941,835,751,931,663,3146,17072,-2336,1232,-1010,-1863,140
2944,838,753,931,668,3150,17288,-2476,1040,-952,-1869,187
2947,846,754,933,670,3152,17332,-2388,1020,-1089,-1567,101
2950,843,761,931,657,3159,17264,-2348,1048,-1091,-1053,66
2953,830,768,933,646,3172,17180,-2432,1284,-1080,-620,50
2956,839,769,927,628,3170,17408,-2456,1580,-647,931,223
2959,835,772,930,624,3174,16800,-2152,-108,-1418,-196,-83
2962,836,772,931,626,3169,16644,-2448,700,-1582,-1003,-104
2965,838,769,944,635,3155,17164,-2624,1704,-1338,129,-3
2968,838,768,951,640,3171,17140,-2632,1132,-1526,125,-66
2971,843,766,955,641,3170,17212,-2560,856,-1738,58,-198
2974,844,767,949,654,3163,17168,-2680,1392,-1593,707,-110
2977,846,762,963,659,3159,17004,-2852,1148,-1582,761,0
2980,849,759,965,661,3154,17144,-2708,1208,-1587,932,24
2983,848,756,960,662,3152,17064,-2668,1336,-1620,1054,-41
2986,849,761,969,663,3146,17196,-2636,1336,-1603,1240,-72
2989,842,768,975,671,3143,17208,-2568,1320,-1610,1356,-109
2992,834,759,976,676,3136,17024,-2700,1480,-1437,1061,-119
2995,841,771,982,678,3126,17088,-2536,1128,-1518,738,-202
2998,846,772,986,676,3130,17072,-2568,1452,-1388,806,-234
3001,846,779,991,683,3123,17020,-2564,1316,-1333,633,-248
3004,848,784,991,677,3118,16972,-2580,1368,-1180,690,-247
3007,849,782,995,674,3111,17020,-2536,1424,-1078,812,-206
3010,843,783,1003,685,3101,16888,-2560,1228,-1035,735,-186
3013,845,779,1002,690,3095,17100,-2568,1420,-1001,656,-155
3016,864,774,1003,695,3088,16988,-2420,1212,-1014,642,-146
3019,854,779,1002,698,3085,16952,-2448,1044,-1022,505,-122
3022,848,775,1008,707,3071,17012,-2348,992,-1033,376,-99
3025,854,775,1008,711,3061,17080,-2352,1024,-1093,237,-128
3028,853,775,1006,714,3062,17176,-2332,888,-1141,113,-153
3031,858,779,1008,712,3056,17116,-2340,868,-1113,204,-135
3034,855,772,1008,707,3040,17124,-2304,960,-1139,263,-143
3037,858,773,1008,705,3045,17116,-2308,928,-1119,269,-154
3040,855,770,1011,702,3030,17076,-2336,828,-1173,192,-181
3043,871,769,1008,700,3024,17000,-2388,860,-1192,100,-206
3046,854,768,1007,695,3023,17032,-2332,1000,-1201,88,-207
3049,851,765,1002,690,3007,17020,-2412,976,-1204,50,-214
3052,852,767,1005,691,3008,16828,-2376,972,-1213,-31,-206
3055,855,773,995,698,2992,16976,-2400,840,-1213,68,-197
3058,860,767,994,694,2989,16996,-2420,1032,-1207,13,-200
3061,859,775,989,699,2992,16916,-2444,1028,-1238,24,-178
3064,857,773,976,704,2977,16960,-2368,980,-1231,70,-138
3067,859,774,976,702,2974,16992,-2416,1052,-1274,110,-144
3070,853,771,969,709,2964,16992,-2372,1088,-1324,72,-133
3073,848,781,971,709,2949,16868,-2528,1076,-1355,4,-131
3076,848,784,960,707,2958,16876,-2392,1132,-1393,-28,-113
3079,848,787,959,707,2939,17100,-2420,1000,-1471,-13,-41
3082,845,784,954,707,2935,16868,-2700,1140,-1441,-251,-105
3085,846,785,950,703,2929,16860,-2688,1180,-1455,-214,-105
3088,843,791,950,699,2917,16872,-2712,1164,-1432,-283,-84
3091,844,795,954,691,2919,16864,-2752,1024,-1418,-261,-45
3094,847,787,947,687,2905,16880,-2884,1120,-1392,-246,-46
3097,843,784,947,688,2896,16848,-2928,1076,-1314,-278,7
3100,838,784,950,685,2893,16932,-2900,944,-1287,-214,49
3103,845,783,950,684,2873,16908,-2924,1104,-1282,-278,49
3106,843,779,951,677,2874,16776,-3004,892,-1259,-293,60
3109,848,775,954,675,2869,16716,-3152,884,-1234,-216,47
3112,845,775,949,670,2855,16780,-3048,868,-1195,-253,74
3115,843,773,954,666,2835,16764,-3120,736,-1139,-250,57
3118,846,768,959,666,2814,16840,-3112,776,-1079,-197,79
3121,846,769,959,660,2800,16856,-3216,796,-1035,-190,115
3124,843,773,959,669,2785,16804,-3216,740,-1013,-196,120
3127,850,773,962,659,2745,16884,-3256,648,-1037,-189,116
3130,842,754,960,660,2714,16848,-3240,620,-1041,-172,132
3133,842,768,962,659,2653,16984,-3276,600,-1017,-147,165
3136,836,759,963,666,2559,16936,-3312,672,-1026,-186,185
3139,841,752,960,660,2512,17004,-3228,596,-1048,-183,203
3142,839,752,960,658,2438,16996,-3168,712,-1032,-193,196
3145,839,752,989,651,2382,16880,-3084,840,-1071,-264,207
3148,844,755,976,677,2323,16824,-3008,952,-1036,-298,215
3151,837,761,980,673,2270,16844,-3012,684,-1036,-235,186
3154,835,765,981,640,2224,17008,-2892,936,-1047,-371,152
3157,835,763,989,656,2181,16664,-2972,896,-998,-600,166
3160,837,767,991,655,2134,16864,-2976,1068,-999,-35,80
3163,832,771,981,625,2095,17252,-2720,1116,-1040,115,55
3166,836,774,979,635,2044,16824,-2800,748,-1058,-20,11
3169,837,773,976,645,2011,16776,-2892,696,-922,-42,128
3172,842,771,976,649,1972,16800,-2800,808,-917,7,105
3175,837,765,985,649,1936,16872,-2740,772,-932,-237,160
3178,839,753,981,644,1907,16740,-2716,504,-945,-596,195
3181,834,758,979,647,1872,16884,-2712,540,-940,-577,246
3184,834,752,987,654,1839,16848,-2704,652,-926,-633,251
3187,843,749,994,649,1810,16656,-2680,640,-917,-708,267
3190,847,752,986,654,1782,16972,-2596,588,-959,-456,280
3193,846,761,994,658,1761,16948,-2756,712,-938,-287,289
3196,845,766,1002,672,1744,16824,-2656,788,-909,-302,312
3199,848,770,995,676,1712,16956,-2632,608,-963,-181,280
3202,848,756,993,690,1693,16932,-2816,588,-939,-139,288
3205,849,761,996,695,1677,16896,-2744,624,-992,-211,291
3208,853,759,998,700,1653,16924,-2680,564,-996,-240,285
3211,860,766,994,710,1645,16884,-2716,732,-992,-247,280
3214,848,771,998,710,1626,16948,-2668,772,-1004,-229,307
3217,846,783,1003,715,1616,16856,-2712,736,-985,-281,305
3220,848,783,999,699,1610,16860,-2768,736,-1017,-199,260
3223,848,784,995,704,1590,16924,-2728,880,-1020,-123,270
3226,848,784,1003,709,1571,16832,-2680,708,-1006,-137,241
3229,843,784,1001,711,1535,16848,-2712,948,-1011,-132,231
3232,848,782,1003,705,1519,16944,-2628,936,-979,-153,252
3235,845,778,1008,704,1497,16904,-2616,800,-969,-241,265
3238,845,768,1023,704,1472,17032,-2648,764,-923,-340,252
3241,841,767,1013,707,1445,17008,-2572,724,-853,-319,286
3244,839,764,1013,693,1423,17032,-2596,868,-827,-404,293
3247,846,762,1022,693,1398,16996,-2648,776,-768,-437,288
3250,848,758,1010,669,1379,17048,-2588,728,-766,-463,289
3253,843,765,1020,662,1351,17032,-2800,696,-713,-536,322
3256,843,757,1015,640,1335,16984,-2572,848,-736,-643,310
3259,845,753,1014,655,1315,17020,-2668,684,-721,-669,380
3262,841,752,1008,666,1295,16844,-2732,908,-703,-708,376
3265,849,746,1002,656,1282,17068,-2752,864,-700,-627,372
3268,847,743,991,655,1265,16924,-2772,868,-698,-692,415
3271,848,743,977,654,1247,16932,-2744,892,-687,-754,382
3274,848,742,1001,656,1227,16936,-2744,892,-727,-685,371
3277,849,743,1008,655,1213,17052,-2676,772,-715,-717,336
3280,848,745,1009,656,1203,16988,-2728,840,-622,-815,361
3283,847,737,1019,639,1193,16928,-2596,932,-594,-822,351
3286,846,739,1033,624,1176,16952,-2580,752,-543,-914,398
3289,843,732,1023,642,1168,17136,-2520,884,-572,-883,397
3292,838,737,1023,642,1158,17188,-2492,1056,-566,-749,419
3295,835,738,1023,645,1151,17076,-2564,1196,-603,-689,385
3298,841,743,1018,641,1137,17284,-2416,1156,-713,-574,317
3301,844,749,1007,643,1136,17344,-2448,1000,-786,-439,252
3304,834,751,1008,655,1134,17336,-2360,920,-781,-113,242
3307,832,752,1008,656,1125,17240,-2432,1372,-706,-93,256
3310,837,752,999,662,1123,17020,-2396,1096,-634,-191,348
3313,838,753,1002,671,1121,17036,-2320,984,-710,-741,447
3316,839,752,1007,676,1112,17328,-2324,908,-685,-807,503
3319,837,751,1007,670,1111,17392,-2192,1128,-721,-424,464
3322,835,749,1008,676,1107,17576,-2024,728,-786,-325,444
3325,841,751,1008,680,1111,17280,-2132,1304,-851,-150,288
3328,843,752,1005,665,1107,17268,-2244,832,-849,-279,243
3331,848,757,998,672,1107,17308,-2172,852,-894,-245,169
3334,848,758,990,678,1110,17164,-2216,840,-871,-410,170
3337,851,774,993,686,1109,17228,-2164,892,-911,-650,203
3340,853,768,998,687,1109,17256,-2172,968,-912,-663,147
3343,859,767,993,675,1115,17208,-2316,812,-931,-516,140
3346,852,772,989,676,1115,17188,-2276,772,-936,-270,106
3349,853,778,991,675,1122,17196,-2356,944,-921,-169,146
3352,858,773,995,674,1120,17164,-2388,968,-855,0,155
3355,851,774,994,672,1120,17080,-2336,932,-863,66,183
3358,854,778,995,673,1127,16948,-2276,792,-887,28,139
3361,851,783,991,673,1121,17012,-2360,836,-880,-51,177
3364,851,777,997,674,1126,17096,-2392,720,-884,-96,173
3367,849,774,991,681,1127,17176,-2380,876,-916,16,164
3370,851,771,990,681,1121,17092,-2388,920,-888,101,165
3373,851,771,991,684,1124,17200,-2380,804,-918,142,189
3376,849,768,976,685,1119,17032,-2344,864,-883,42,218
3379,848,769,976,694,1111,17076,-2312,1000,-890,164,256
3382,848,767,974,695,1110,17260,-2172,808,-918,176,299
3385,845,767,1009,688,1098,16840,-2356,1068,-961,-116,249
3388,843,769,963,691,1098,17008,-2272,1084,-1019,-101,217
3391,837,778,970,691,1091,17172,-2192,792,-1092,-131,194
3394,839,778,966,691,1089,17152,-2280,916,-1175,-443,184
3397,839,784,963,689,1086,17260,-2272,892,-1229,-419,187
3400,848,785,960,688,1072,17332,-2080,860,-1342,-337,196
3403,842,783,964,688,1062,17296,-2440,980,-1367,-396,161
3406,845,779,957,688,1061,17252,-2356,1004,-1447,-393,123
3409,845,778,957,681,1053,17168,-2432,1040,-1380,-367,78
3412,847,774,960,681,1049,17172,-2528,828,-1508,-361,71
3415,848,777,960,679,1041,17060,-2596,884,-1523,-364,47
3418,850,777,960,672,1023,16976,-2576,840,-1561,-451,-3
3421,851,776,958,671,1023,16964,-2720,888,-1597,-448,19
3424,848,777,960,670,1017,16964,-2772,788,-1595,-411,-39
3427,851,779,959,667,1017,16928,-2780,608,-1615,-327,-46
3430,854,782,957,676,1009,16908,-2824,816,-1590,-328,-38
3433,849,781,961,688,1007,16864,-2772,720,-1552,-226,-77
3436,850,783,959,673,999,16948,-2820,736,-1535,-141,-44
3439,850,777,960,677,994,16800,-2952,784,-1469,-137,-90
3442,848,774,960,673,986,16820,-2976,632,-1451,-69,-105
3445,850,778,957,670,982,17044,-2944,848,-1366,301,-90
3448,849,780,965,663,976,16924,-2880,784,-1336,263,-70
3451,849,788,962,661,974,17020,-2940,780,-1264,333,-102
3454,848,781,967,656,974,16960,-2948,744,-1215,406,-82
3457,842,781,966,652,973,16996,-2980,612,-1159,504,-68
3460,848,774,960,647,970,17092,-2996,784,-1115,486,-103
3463,845,779,960,641,963,16892,-2956,572,-1046,493,-63
3466,848,778,961,637,958,16980,-2952,648,-1040,462,-60
3469,848,774,964,624,957,17032,-2920,700,-958,412,-87
3472,847,768,964,636,951,17092,-2968,608,-960,362,-82
3475,843,770,967,646,955,17024,-2980,748,-876,311,-76
3478,847,772,976,649,951,17080,-2996,580,-814,180,-73
3481,853,769,961,653,944,16992,-2912,428,-823,104,-101
3484,865,771,966,656,944,16880,-3032,832,-671,145,-74
3487,847,778,970,658,944,16988,-3072,476,-531,116,-108
3490,847,773,970,662,941,17152,-2916,572,-458,-196,19
3493,848,770,981,670,939,16872,-2972,764,-384,-293,6
3496,846,766,970,672,938,17040,-3012,672,-307,-75,-19
3499,848,772,975,675,934,17180,-2928,760,-367,-170,-83
3502,848,764,981,674,939,17000,-2968,644,-341,-306,-67
3505,848,767,977,671,931,16876,-2964,712,-288,-269,-108
3508,848,767,971,673,935,17072,-2836,648,-281,-241,-110
3511,852,771,978,670,929,16956,-2872,656,-237,-340,-133
3514,848,768,981,667,922,16900,-2716,612,-263,-358,-138
3517,844,763,981,682,925,17016,-2668,636,-287,-242,-174
3520,846,765,978,669,927,16984,-2748,664,-297,-97,-180
3523,842,765,979,672,919,16976,-2688,624,-298,-46,-184
3526,839,762,977,678,917,17020,-2672,708,-340,121,-171
3529,841,763,981,677,913,17096,-2700,760,-340,165,-175
3532,845,765,982,678,915,16960,-2668,660,-378,118,-147
3535,835,765,977,678,913,17032,-2692,616,-424,152,-135
3538,834,769,979,676,913,16952,-2688,560,-497,124,-143
3541,838,769,983,672,915,17068,-2680,748,-513,42,-157
3544,843,771,979,685,912,16956,-2584,608,-596,0,-147
3547,843,771,989,677,905,16992,-2620,572,-654,31,-142
3550,845,762,991,678,910,17148,-2556,732,-707,34,-148
3553,844,766,993,675,910,17052,-2664,580,-754,27,-196
3556,848,767,995,672,907,17096,-2644,624,-805,-19,-187
3559,848,768,993,674,905,16916,-2640,720,-848,-4,-185
3562,848,768,994,675,899,16976,-2624,588,-842,-16,-236
3565,848,767,997,677,899,16916,-2672,556,-868,9,-241
3568,843,767,997,678,898,16908,-2736,724,-850,-3,-216
3571,848,768,993,677,897,16896,-2844,532,-834,-13,-213
3574,848,768,1003,677,896,16720,-2656,644,-795,2,-212
3577,848,774,993,685,892,16872,-2712,752,-769,-28,-188
3580,848,766,989,687,890,16864,-2756,748,-741,-54,-187
3583,848,769,989,677,890,16880,-2808,788,-685,-90,-148
3586,848,773,989,676,889,16800,-2808,816,-668,-130,-126
3589,846,770,990,688,887,16800,-2820,888,-616,-141,-96
3592,845,770,980,689,881,16956,-2752,864,-587,-52,-97
3595,845,768,986,691,881,16888,-2796,752,-566,-188,-63
3598,843,768,983,697,880,16952,-2820,952,-574,-205,-42
3601,835,774,992,697,882,17024,-2800,1016,-499,-139,13
3604,839,775,979,692,880,16792,-2852,824,-511,-211,24
3607,833,778,983,688,878,16916,-2840,836,-527,-264,-6
3610,834,773,985,686,879,16876,-2872,700,-549,-189,40
3613,831,771,991,681,875,16988,-2756,704,-532,-72,32
3616,836,769,989,682,871,16948,-2692,736,-547,-109,50
3619,836,768,990,677,874,16968,-2872,620,-555,-54,28
3622,835,770,979,677,870,16972,-2732,720,-579,-38,72
3625,835,766,991,679,870,17036,-2808,664,-615,3,73
3628,845,768,1005,677,869,16960,-2744,648,-622,-49,66
3631,843,765,986,675,869,16964,-2692,528,-717,-71,90
3634,841,766,990,679,869,16880,-2608,664,-749,-46,94
3637,848,763,993,674,864,17100,-2612,676,-821,-5,87
3640,848,763,993,673,867,16900,-2608,620,-841,42,95
3643,841,762,994,671,873,16908,-2620,568,-886,59,77
3646,847,768,1002,668,871,16912,-2628,712,-886,58,90
3649,848,763,999,671,880,16896,-2584,660,-913,72,107
3652,849,762,1003,671,880,16784,-2648,548,-910,21,78
3655,849,758,999,669,879,16892,-2628,596,-900,-48,153
3658,848,759,999,674,880,16920,-2656,552,-882,-16,142
3661,851,753,998,675,883,16976,-2688,552,-923,-32,133
3664,847,752,998,678,887,16956,-2688,580,-910,-70,166
3667,848,752,1006,679,891,16844,-2672,616,-935,-81,181
3670,848,754,999,688,894,16940,-2636,752,-905,-92,197
3673,840,752,994,678,903,17016,-2740,692,-933,-148,183
3676,842,757,993,677,902,16984,-2644,640,-950,-150,198
3679,834,755,993,672,899,16976,-2600,940,-933,-250,248
3682,842,757,997,676,909,17104,-2636,1012,-909,-283,223
3685,836,757,989,672,907,16956,-2528,992,-906,-297,216
3688,836,761,995,673,910,16884,-2532,1064,-869,-361,210
3691,855,762,990,671,912,17104,-2592,1196,-850,-307,214
3694,842,763,990,672,912,17152,-2576,1044,-836,-273,221
3697,843,767,986,679,917,17172,-2384,1004,-835,-298,180
3700,845,764,990,679,913,17064,-2448,972,-878,-196,184
3703,845,768,985,676,914,17128,-2476,916,-858,-139,171
3706,848,774,989,677,912,17088,-2444,876,-888,-78,148
3709,848,770,1003,673,912,17080,-2440,872,-873,-109,149
3712,853,771,990,679,914,17116,-2448,840,-886,-160,131
3715,848,775,989,677,917,16952,-2352,780,-940,-86,108
3718,848,768,989,682,909,17052,-2412,716,-952,-133,88
3721,848,769,989,677,911,17072,-2468,860,-982,-68,63
3724,848,769,990,677,904,17000,-2424,800,-1011,-67,67
3727,848,770,991,679,909,17104,-2420,664,-1037,-37,50
3730,869,767,982,682,911,16964,-2444,752,-1041,36,70
3733,847,767,985,686,907,17100,-2488,724,-1102,55,66
3736,848,768,980,686,899,17020,-2584,716,-1145,83,69
3739,846,772,974,678,902,17028,-2624,700,-1200,97,69
3742,849,772,975,683,898,17000,-2644,792,-1250,124,58
3745,846,774,971,677,896,17004,-2452,776,-1297,134,76
3748,841,779,972,682,896,17008,-2544,716,-1404,231,127
3751,838,774,975,682,890,17000,-2796,876,-1376,206,82
3754,843,769,971,682,893,16896,-2712,868,-1370,100,101
3757,840,780,966,679,887,16976,-2672,776,-1410,59,90
3760,839,774,971,682,886,17012,-2728,748,-1412,18,103
3763,839,771,969,685,883,16944,-2748,864,-1390,16,126
3766,837,768,965,679,881,16860,-2756,920,-1405,-84,122
3769,837,770,971,681,880,16936,-2616,868,-1430,-36,176
3772,839,769,976,678,880,17140,-2772,932,-1350,-9,145
3775,841,781,969,689,880,16900,-2736,1136,-1331,-75,160
3778,842,773,967,681,880,17048,-2732,812,-1348,-102,162
3781,837,773,971,679,877,17036,-2744,820,-1319,-126,147
3784,835,781,970,682,870,17124,-2732,844,-1308,-100,141
3787,838,775,975,686,875,17000,-2712,820,-1269,-125,162
3790,841,777,967,682,875,16988,-2804,928,-1267,-97,142
3793,842,777,969,685,873,16976,-2808,876,-1247,-125,162
3796,842,769,975,678,870,17100,-2844,892,-1207,-38,169
3799,842,768,975,679,874,16964,-2700,940,-1212,-1,162
3802,845,768,971,678,875,16932,-2772,824,-1238,-4,180
3805,841,766,974,680,870,16888,-2888,816,-1227,34,168
3808,841,767,976,676,871,16904,-2724,648,-1243,-1,183
3811,837,767,967,672,867,16976,-2868,732,-1214,39,175
3814,829,762,971,671,867,16844,-2892,684,-1242,84,178
3817,841,765,969,668,869,16912,-2840,744,-1208,25,169
3820,839,762,976,665,870,16940,-2896,756,-1214,39,162
3823,839,758,974,668,873,17016,-2856,812,-1150,-27,186
3826,841,762,975,667,871,16924,-2888,580,-1238,-9,97
3829,836,762,969,665,866,17128,-2824,968,-1159,329,116
3832,835,761,967,670,867,17148,-2900,888,-1114,335,113
3835,839,763,961,667,866,16928,-2792,728,-1112,-10,113
3838,838,768,960,677,871,16816,-2944,792,-1091,-256,161
3841,842,762,961,667,871,16792,-2900,720,-1055,-276,160
3844,839,764,962,661,869,17092,-2776,772,-1030,-200,143
3847,848,769,962,658,870,16964,-2756,816,-1003,-214,109
3850,849,762,969,665,874,17068,-2824,868,-1006,-210,93
3853,848,757,966,669,880,17104,-2784,792,-974,-164,42
3856,848,784,966,672,895,17084,-2784,780,-910,-93,29
3859,848,765,970,674,915,16964,-2860,676,-865,-88,25
3862,848,768,966,675,930,17068,-2892,708,-867,-106,16
3865,851,772,976,674,951,17040,-2908,636,-851,-122,-14
3868,848,774,975,668,976,17056,-2952,848,-826,-109,-32
3871,845,757,976,671,997,16964,-2940,800,-842,-76,-80
3874,845,768,978,662,1019,16952,-2848,932,-828,-47,-111
3877,843,763,977,663,1042,16984,-2876,760,-804,-77,-117
3880,843,763,974,661,1065,17060,-2916,784,-760,-79,-75
3883,841,761,975,666,1092,17044,-2872,672,-751,-36,-94
3886,845,764,976,664,1117,17144,-2720,648,-767,-45,-89
3889,847,770,975,666,1135,17168,-2764,584,-730,-47,-71
3892,848,765,976,666,1158,17076,-2748,648,-751,-87,-35
3895,843,767,975,667,1177,17016,-2760,744,-787,-25,-46
3898,845,769,976,677,1200,17132,-2724,692,-747,-84,-62
3901,847,765,977,678,1233,16888,-2792,684,-758,-128,-61
3904,846,763,978,678,1255,17008,-2752,684,-762,-145,-83
3907,846,783,987,678,1279,16944,-2712,732,-723,-98,-98
3910,848,773,979,683,1298,17044,-2696,736,-695,-106,-81
3913,847,776,979,686,1317,16884,-2708,936,-702,-98,-76
3916,843,775,981,689,1350,16960,-2760,808,-666,-108,-46
3919,845,775,981,688,1373,16952,-2700,804,-632,-103,-45
3922,845,771,982,691,1393,17020,-2608,968,-618,-102,-33
3925,843,766,979,695,1424,17032,-2644,932,-630,-22,-16
3928,842,763,982,697,1440,17072,-2612,880,-661,-11,2
3931,837,770,976,697,1475,17140,-2668,864,-677,69,9
3934,855,769,979,683,1501,17140,-2604,740,-676,146,13
3937,846,771,976,692,1511,16996,-2600,740,-682,172,31
3940,847,771,974,688,1535,16984,-2576,864,-702,167,14
3943,841,771,977,688,1568,16968,-2520,788,-767,132,1
3946,846,777,974,680,1598,16924,-2532,760,-826,44,-23
3949,849,778,967,683,1623,17048,-2552,852,-952,-6,-2
3952,848,777,973,688,1639,17012,-2568,864,-949,-33,-43
3955,846,775,975,678,1661,17084,-2500,672,-1022,-103,-53
3958,848,784,967,684,1675,17028,-2472,824,-1054,-27,-45
3961,848,784,970,677,1698,17056,-2584,900,-1128,27,-88
3964,854,795,975,677,1729,17020,-2420,608,-1124,82,-74
3967,849,783,966,678,1739,17020,-2436,624,-1150,114,-90
3970,848,802,976,675,1764,16980,-2732,776,-1131,126,-130
3973,849,784,974,678,1783,16848,-2676,468,-1193,83,-180
3976,843,783,973,681,1793,16920,-2664,600,-1232,45,-174
3979,846,782,976,687,1825,16916,-2768,568,-1268,-10,-202
3982,848,779,974,686,1840,16996,-2652,520,-1285,27,-175
3985,845,777,976,686,1853,16892,-2700,624,-1331,-42,-168
3988,843,773,975,688,1873,16992,-2716,656,-1354,-52,-193
3991,847,772,976,690,1886,17032,-2656,580,-1357,51,-157
3994,845,772,979,688,1906,17096,-2732,520,-1386,6,-156
3997,841,778,979,689,1927,16940,-2740,756,-1367,29,-137
4000,846,774,976,687,1936,16976,-2732,732,-1373,101,-121
4003,841,777,977,688,1960,17000,-2788,824,-1352,90,-137
4006,843,779,976,688,1968,16920,-2772,904,-1353,142,-117
4009,848,782,978,689,1984,16980,-2668,924,-1323,165,-148
4012,842,780,977,688,2005,16860,-2808,816,-1309,173,-101
4015,839,785,977,693,2015,16884,-2792,904,-1246,148,-124
4018,840,785,977,693,2029,16856,-2684,812,-1231,108,-120
4021,842,784,982,697,2038,16956,-2736,1064,-1188,95,-123
4024,845,788,974,693,2054,16964,-2764,912,-1201,48,-85
4027,845,784,974,695,2075,17028,-2704,900,-1182,20,-102
4030,848,782,975,697,2087,17072,-2732,912,-1156,72,-85
4033,845,784,969,695,2096,17060,-2672,808,-1132,104,-62
4036,848,783,974,698,2111,16944,-2724,772,-1117,57,-106
4039,846,784,966,698,2114,17036,-2704,860,-1135,30,-83
4042,848,784,971,693,2133,17008,-2720,976,-1103,-32,-105
4045,848,785,972,691,2143,16988,-2784,768,-1102,-12,-119
4048,839,785,962,690,2150,17104,-2840,676,-1162,-62,-151
4051,847,791,969,687,2163,17052,-2828,936,-1145,-86,-128
4054,840,786,965,685,2175,16940,-2836,860,-1196,-87,-150
4057,839,785,961,687,2186,16924,-2860,852,-1169,-85,-137
4060,839,787,963,681,2198,16984,-2908,824,-1193,-48,-102
4063,845,784,960,678,2207,16940,-2824,668,-1214,-6,-123
4066,843,784,966,663,2212,16940,-2848,800,-1248,57,-102
4069,842,785,961,672,2222,17104,-2896,868,-1264,88,-66
4072,841,786,960,672,2226,16896,-2760,952,-1271,97,-51
4075,839,784,962,669,2241,16928,-3004,928,-1280,117,-11
4078,838,784,962,663,2245,16932,-2960,884,-1293,123,2
4081,835,784,969,662,2255,16868,-2956,876,-1282,96,0
4084,834,784,965,660,2256,16800,-2916,856,-1241,101,-9
4087,844,787,961,660,2257,16904,-2840,868,-1224,35,11
4090,844,790,970,671,2275,16844,-2936,860,-1214,22,28
4093,848,785,973,667,2279,16956,-2940,768,-1168,-6,41
4096,849,784,965,666,2283,16980,-2892,804,-1175,12,-2
4099,850,789,967,671,2288,17012,-3012,660,-1160,27,40
4102,847,786,970,666,2288,17012,-2844,812,-1134,46,13
4105,848,793,968,672,2295,16988,-2852,652,-1101,32,20
4108,841,786,966,673,2304,17088,-2940,616,-1072,54,-23
4111,848,785,967,672,2310,16912,-2892,560,-1061,12,-10
4114,848,784,965,666,2311,17040,-2844,592,-1079,0,-40
4117,845,779,970,659,2310,17108,-2916,656,-1086,13,-64
4120,843,781,969,659,2319,17040,-2920,672,-1092,-25,-63
4123,835,778,967,657,2326,16984,-2880,788,-1077,-43,-74
4126,835,775,963,656,2326,16888,-2784,840,-1106,-50,-84
4129,844,778,957,656,2327,17036,-2836,792,-1119,-24,-94
4132,843,780,959,659,2331,16920,-2844,784,-1097,-23,-110
4135,845,775,960,660,2331,16816,-2792,840,-1128,-24,-126
4138,842,781,957,661,2335,16784,-2808,852,-1108,-59,-118
4141,843,782,953,669,2340,16836,-2804,672,-1087,-64,-148
4144,856,783,951,663,2340,16884,-2788,848,-1072,-83,-118
4147,837,785,951,657,2327,16888,-2696,708,-1069,-72,-104
4150,835,791,950,669,2330,16916,-2808,836,-1039,-135,-115
4153,838,784,944,663,2331,16904,-2756,836,-1018,-180,-125
4156,840,784,946,665,2323,16984,-2724,672,-1042,-182,-75
4159,839,784,946,661,2321,16976,-2796,684,-1055,-186,-101
4162,835,784,945,660,2315,16972,-2892,500,-1064,-135,-48
4165,842,784,945,666,2307,16832,-2868,596,-1095,-112,-55
4168,844,778,943,669,2304,16848,-2944,524,-1096,-101,-57
4171,836,778,948,666,2297,16868,-2932,632,-1130,-39,-31
4174,844,782,954,664,2286,16840,-3076,448,-1121,-52,-21
4177,846,777,951,662,2271,16724,-3068,608,-1163,-92,-7
4180,851,777,951,656,2257,16872,-3092,588,-1224,-59,-3
4183,853,779,957,656,2250,16776,-3092,592,-1238,-43,13
4186,848,784,958,656,2230,16708,-3180,592,-1233,-25,17
4189,853,783,967,658,2219,16736,-3148,616,-1230,-34,15
4192,848,784,963,656,2207,16720,-3228,468,-1211,-10,58
4195,838,795,960,656,2181,16732,-3244,620,-1175,-48,65
4198,848,783,960,656,2173,16836,-3280,532,-1146,-73,104
4201,846,784,964,661,2160,16720,-3412,352,-1094,-100,151
4204,846,780,966,657,2148,16636,-3384,444,-1031,-177,155
4207,841,779,976,656,2129,16500,-3400,484,-1000,-255,178
4210,835,779,974,656,2112,16712,-3356,436,-974,-269,184
4213,836,781,974,654,2101,16624,-3356,648,-954,-319,211
4216,832,784,977,654,2091,16608,-3356,652,-902,-355,227
4219,832,775,983,653,2071,16748,-3204,576,-876,-396,218
4222,837,779,986,656,2064,16808,-3240,504,-844,-388,257
4225,832,778,989,656,2036,16884,-3276,692,-793,-434,311
4228,833,773,1008,658,2026,16984,-3268,428,-869,-403,329
4231,839,774,991,655,2017,16996,-3196,556,-869,-443,354
4234,839,775,994,649,2000,16808,-3136,392,-901,-408,339
4237,838,774,997,643,1986,16956,-3216,596,-900,-432,335
4240,837,786,998,625,1972,16848,-3128,488,-902,-445,357
4243,843,781,995,614,1959,16816,-3192,540,-954,-456,334
4246,837,779,1005,610,1949,16816,-3100,424,-899,-477,303
4249,830,781,1008,605,1937,16860,-3140,736,-899,-455,317
4252,846,779,1006,592,1929,16888,-3092,404,-915,-386,314
4255,839,771,1006,587,1918,16860,-3084,460,-929,-330,303
4258,843,768,1013,589,1895,16976,-3140,500,-946,-260,284
4261,846,766,1007,585,1895,16988,-3120,588,-958,-194,300
4264,843,754,1008,588,1885,16808,-3144,592,-979,-132,320
4267,847,753,1008,591,1869,16832,-3216,548,-982,-115,304
4270,847,752,1008,592,1861,16928,-3236,372,-1002,-33,292
4273,846,762,1009,592,1850,16896,-3104,452,-997,34,274
4276,842,763,1011,608,1835,16748,-3092,380,-1009,-158,317
4279,848,758,1014,603,1828,16800,-3120,224,-966,-93,301
4282,845,764,1013,611,1813,16848,-3156,544,-926,26,312
4285,846,763,1017,623,1810,16932,-3044,432,-920,56,278
4288,846,762,1040,624,1795,16828,-3120,416,-904,-7,283
4291,844,764,1009,624,1789,16872,-3108,532,-893,-72,283
4294,848,781,1018,633,1789,16916,-3116,532,-847,-17,306
4297,848,773,1019,643,1778,17000,-3172,272,-798,-77,330
4300,845,778,1010,650,1773,17056,-3156,516,-764,-157,331
4303,848,774,1010,657,1761,17136,-3104,644,-748,-220,359
4306,846,777,1019,657,1747,16932,-3092,684,-726,-204,330
4309,847,777,1017,659,1743,17132,-3072,648,-707,-182,334
4312,851,774,1018,655,1744,17144,-3180,580,-701,-181,342
4315,848,786,1011,652,1741,17136,-3152,464,-671,-154,346
4318,848,768,1010,651,1730,16884,-3040,640,-699,-264,329
4321,848,769,1023,654,1721,17036,-3148,512,-650,-230,313
4324,839,768,1008,688,1716,16936,-3064,404,-661,-378,262
4327,832,768,1014,676,1712,17016,-3144,444,-684,-372,268
4330,834,765,1022,661,1703,16992,-3100,560,-727,-385,203
4333,829,766,1017,661,1708,16988,-3172,532,-649,-552,211
4336,838,766,1013,660,1695,17152,-3040,664,-615,-310,222
4339,830,761,1013,658,1687,17048,-2976,736,-659,-194,182
4342,829,764,1008,656,1690,16964,-3012,360,-708,-322,144
4345,831,762,1019,659,1680,16912,-3028,616,-615,-224,168
4348,838,755,1007,656,1679,17016,-2992,772,-507,8,173
4351,838,761,1008,666,1676,17416,-2872,844,-589,65,199
4354,842,767,1003,667,1669,16676,-3140,540,-332,-290,334
4357,841,763,1008,669,1666,17252,-2904,756,-379,244,245
4360,845,766,1008,669,1664,17060,-3040,520,-358,50,274
4363,843,763,1008,663,1664,16780,-2904,684,-289,-221,286
4366,846,751,1007,659,1661,16844,-3080,716,-229,-232,248
4369,848,762,1006,657,1648,17124,-2876,736,-252,-100,168
4372,848,768,1002,656,1650,17072,-2964,704,-190,-86,147
4375,848,768,1003,658,1649,17040,-2888,732,-219,-79,122
4378,847,765,1006,661,1645,17036,-2880,916,-191,-19,82
4381,846,765,1003,666,1647,17156,-2852,796,-184,115,48
4384,848,762,1003,668,1638,16980,-2896,696,-189,72,9
4387,849,761,1007,661,1629,17160,-2756,652,-215,152,-13
4390,847,753,1007,672,1631,17180,-2916,512,-179,20,-44
4393,848,752,1001,656,1627,17248,-2780,688,-232,95,-62
4396,839,752,1004,674,1625,17088,-2820,736,-243,65,-76
4399,847,754,999,683,1621,17072,-2876,672,-237,3,-103
4402,848,753,996,677,1616,17052,-2760,828,-268,-115,-149
4405,849,754,1000,682,1616,16960,-2828,692,-221,-227,-135
4408,851,757,997,679,1610,17044,-2800,704,-234,-311,-133
4411,854,758,993,675,1612,16920,-2920,896,-238,-364,-144
4414,855,763,992,670,1609,17008,-2852,860,-238,-461,-102
4417,854,758,989,673,1597,16960,-2876,976,-253,-439,-100
4420,858,761,991,670,1590,17112,-2760,888,-216,-439,-77
4423,853,747,985,674,1593,17052,-2696,896,-162,-361,-100
4426,851,759,991,678,1584,17124,-2760,960,-131,-270,-109
4429,847,761,992,674,1578,16988,-2708,892,-118,-195,-101
4432,845,763,990,678,1563,17132,-2704,600,-116,-174,-124
4435,848,770,993,675,1535,17124,-2636,876,-112,-189,-116
4438,846,767,990,683,1535,17068,-2628,720,-148,-178,-121
4441,845,754,985,676,1522,17056,-2712,800,-158,-197,-125
4444,847,769,993,674,1506,17060,-2692,848,-178,-208,-139
4447,844,768,989,677,1483,16988,-2556,756,-181,-168,-89
4450,843,765,981,675,1456,16980,-2592,804,-233,-134,-114
4453,846,764,986,675,1440,17012,-2568,856,-245,-120,-109
4456,846,766,979,681,1414,16948,-2664,1100,-302,-105,-90
4459,846,767,977,681,1388,16932,-2592,980,-331,-80,-78
4462,846,777,978,676,1365,16948,-2580,888,-438,-52,-85
4465,846,768,976,678,1343,16988,-2536,852,-501,-3,-54
4468,848,768,982,688,1319,17196,-2560,888,-516,-10,-76
4471,846,771,984,688,1297,17052,-2500,696,-633,-9,-60
4474,847,769,985,688,1278,16992,-2628,832,-618,-53,-51
4477,847,769,978,691,1261,17048,-2636,828,-691,-88,-59
4480,842,773,977,689,1243,17124,-2528,860,-761,-82,-62
4483,847,769,976,693,1227,16992,-2508,772,-815,-83,-104
4486,841,772,976,693,1209,17000,-2612,784,-918,-47,-76
4489,843,770,976,698,1191,17000,-2552,852,-987,14,-95
4492,839,768,973,699,1176,17008,-2552,980,-1068,35,-84
4495,844,768,974,698,1161,16944,-2504,912,-1098,85,-74
4498,842,768,975,699,1143,16952,-2484,776,-1124,179,-64
4501,845,761,978,698,1135,16848,-2640,972,-1168,187,-64
4504,846,768,976,703,1122,16804,-2564,776,-1164,198,-81
4507,843,772,975,703,1108,16656,-2640,852,-1178,151,-61
4510,844,773,976,702,1103,16840,-2544,820,-1194,114,-56
4513,848,771,976,704,1088,16908,-2684,868,-1178,88,-31
4516,842,781,977,713,1075,16880,-2792,808,-1187,74,-32
4519,848,784,976,716,1070,16708,-2792,772,-1168,78,-6
4522,848,778,978,711,1059,16872,-2788,668,-1186,137,16
4525,854,783,977,715,1050,16912,-2744,968,-1220,138,12
4528,848,784,981,715,1042,16940,-2764,872,-1278,166,16
4531,850,784,988,714,1034,16912,-2800,852,-1287,275,20
4534,849,785,979,710,1021,16988,-2896,784,-1283,281,30
4537,848,783,991,709,1010,17056,-2856,572,-1289,270,61
4540,848,780,979,702,1008,16968,-2888,668,-1293,195,40
4543,838,771,979,693,999,16980,-2952,548,-1270,75,42
4546,866,775,999,695,994,16920,-2896,552,-1262,24,38
4549,848,773,978,693,990,16912,-2904,672,-1270,-14,33
4552,846,777,985,688,983,17044,-2912,648,-1231,-37,1
4555,843,777,979,689,982,16852,-3044,752,-1261,-71,5
4558,845,775,987,689,976,17032,-3004,708,-1217,-82,-16
4561,843,768,990,688,973,16972,-3080,708,-1205,-86,-11
4564,835,770,993,688,963,17000,-2964,596,-1187,-138,-50
4567,841,770,994,688,961,17020,-3000,820,-1222,-187,-28
4570,839,770,993,683,963,17164,-3100,664,-1226,-174,-26
4573,838,770,988,683,960,16992,-2940,844,-1273,-211,-5
4576,839,769,987,682,951,17092,-2896,852,-1296,-192,18
4579,842,767,983,681,947,17084,-2912,856,-1300,-167,-2
4582,845,769,981,679,944,16892,-2960,948,-1311,-150,3
4585,839,766,980,686,944,16888,-2836,848,-1324,-92,-8
4588,828,768,978,688,938,16964,-2840,872,-1297,-26,-6
4591,855,783,975,688,941,16960,-2932,672,-1274,22,-19
4594,861,784,975,688,937,16868,-2912,648,-1199,96,-19
4597,848,789,974,687,928,16884,-2964,828,-1142,110,-18
4600,848,784,973,687,931,17008,-2864,680,-1079,95,-50
4603,846,784,990,690,930,16916,-2832,660,-1026,40,-49
4606,848,784,967,693,926,16956,-2928,716,-953,63,-70
4609,849,782,970,703,922,16964,-2980,672,-889,88,-41
4612,848,782,966,707,922,16980,-2992,652,-863,101,-41
4615,837,781,966,708,927,17024,-2936,636,-878,65,-71
4618,843,783,966,709,923,17044,-2932,740,-891,123,-91
4621,843,784,966,707,923,17156,-2980,664,-868,141,-66
4624,846,787,961,707,915,17088,-2960,856,-861,111,-75
4627,844,784,962,705,914,17108,-2948,540,-874,124,-94
4630,845,784,961,705,912,17108,-3008,516,-863,75,-112
4633,848,784,959,699,915,17044,-3076,536,-871,43,-129
4636,847,781,959,691,912,17032,-2972,556,-897,32,-135
4639,846,785,959,687,912,17116,-2932,512,-877,89,-155
4642,848,783,961,685,912,16988,-3124,604,-862,14,-174
4645,847,784,967,687,906,16932,-2988,872,-877,-28,-180
4648,852,787,966,682,909,16912,-2956,636,-830,-62,-172
4651,847,780,967,681,911,16832,-3160,652,-837,-94,-167
4654,862,774,962,679,911,17020,-2988,744,-832,-88,-140
4657,837,771,967,675,909,17060,-2964,624,-824,-45,-146
4660,839,773,968,671,907,17004,-2968,772,-843,-13,-140
4663,839,768,970,669,900,17020,-2944,720,-824,4,-117
4666,845,768,973,662,907,17088,-2976,808,-825,19,-97
4669,841,767,970,661,903,16984,-2940,668,-793,17,-114
4672,839,766,973,663,902,16916,-2984,796,-788,4,-66
4675,847,768,971,661,902,16924,-2840,668,-782,6,-89
4678,846,763,968,655,900,17004,-2924,800,-793,14,-60
4681,847,764,976,663,902,16992,-2936,644,-772,45,-65
4684,843,767,975,669,906,16964,-2892,720,-743,100,-39
4687,846,764,969,667,898,16868,-2964,712,-752,171,-70
4690,843,767,971,667,899,16896,-2912,760,-751,165,-44
4693,843,764,967,674,896,16760,-2900,816,-761,186,-31
4696,847,766,969,674,899,16964,-2928,624,-784,182,-12
4699,847,763,973,670,900,16784,-2924,632,-840,152,-21
4702,848,769,961,669,896,16976,-2940,680,-808,107,-27
4705,848,761,976,667,897,16972,-2844,636,-869,57,-30
4708,847,764,976,667,898,17140,-2880,704,-806,330,-39
4711,842,767,983,657,896,17060,-2904,580,-751,196,-37
4714,839,765,978,661,902,16888,-2996,596,-728,40,-49
4717,834,761,975,661,897,17156,-2860,732,-767,194,-95
4720,841,768,980,657,897,17096,-2884,688,-722,232,-97
4723,837,768,978,657,895,16992,-2820,688,-687,112,-86
4726,830,776,976,656,888,17036,-2872,868,-718,104,-111
4729,838,780,971,656,891,17084,-2680,624,-797,38,-109
4732,841,781,966,656,889,16828,-2760,668,-786,-49,-100
4735,843,775,970,656,891,16988,-2808,740,-828,-61,-100
4738,843,779,966,652,889,16960,-2624,780,-861,-15,-109
4741,845,777,970,654,883,16940,-2632,756,-853,14,-153
4744,845,766,962,647,883,17044,-2720,820,-870,79,-160
4747,844,782,966,642,886,16924,-2548,800,-928,112,-160
4750,845,784,964,641,882,16992,-2580,732,-945,144,-178
4753,848,786,960,639,880,16944,-2636,740,-954,146,-145
4756,845,789,960,633,880,16944,-2644,736,-980,108,-159
4759,841,794,961,628,877,16868,-2792,540,-1051,113,-138
4762,839,790,960,625,880,16932,-2828,664,-1058,87,-125
4765,837,802,961,624,880,16832,-2736,632,-1081,69,-111
4768,838,798,960,626,878,17032,-2856,708,-1097,81,-103
4771,837,797,962,635,870,16956,-2892,788,-1110,147,-89
4774,836,793,960,637,872,16936,-3004,784,-1122,166,-80
4777,837,781,958,640,869,17004,-3004,732,-1159,202,-49
4780,834,783,959,641,871,16972,-3032,788,-1194,218,-63
4783,834,783,956,640,873,16968,-3080,788,-1204,249,-70
4786,833,786,957,641,868,16924,-3052,724,-1226,228,-51
4789,837,784,955,640,861,17068,-2952,704,-1257,264,-67
4792,833,784,966,634,863,17004,-3072,880,-1247,276,-51
4795,832,782,960,631,861,16924,-3036,948,-1208,231,-81
4798,833,778,966,636,862,16908,-3020,880,-1223,160,-63
4801,832,782,967,631,857,16912,-3072,756,-1145,105,-50
4804,834,786,971,630,859,17012,-2984,736,-1194,108,-56
4807,839,784,967,626,861,16892,-2976,752,-1098,145,-49
4810,843,785,972,625,858,16912,-3060,668,-1105,60,-49
4813,838,787,973,625,853,16928,-3116,736,-1104,114,-67
4816,836,791,971,624,849,17132,-2980,684,-1082,209,-93
4819,839,783,988,623,848,16972,-3044,768,-965,281,-75
4822,838,779,965,624,848,17044,-3120,520,-982,327,-45
4825,854,779,970,624,848,16988,-3232,656,-1008,338,-52
4828,838,770,978,624,846,16956,-3080,708,-1030,333,-74
4831,843,766,970,625,848,16928,-3080,580,-958,341,-52
4834,843,759,975,626,844,16764,-3132,720,-983,273,-67
4837,843,755,975,624,847,16800,-3108,644,-957,189,-57
4840,850,755,975,624,842,16828,-3036,692,-958,143,-39
4843,843,762,976,639,845,16792,-3100,796,-958,131,-59
4846,848,759,977,628,845,16952,-3052,528,-952,108,-53
4849,846,769,975,635,842,16936,-3112,752,-908,55,-54
4852,862,768,971,636,841,16988,-3040,672,-876,101,-61
4855,848,779,970,650,841,16968,-3020,820,-831,89,-50
4858,850,778,973,656,837,17012,-3036,804,-818,75,-58
4861,845,774,971,658,839,16896,-3088,700,-797,28,-53
4864,841,774,976,666,842,16904,-3068,800,-785,-1,-61
4867,842,776,970,669,838,17020,-3032,804,-768,48,-64
4870,846,781,973,673,845,17028,-3024,860,-736,100,-76
4873,846,779,974,670,834,16896,-3020,792,-730,80,-67
4876,838,782,977,672,838,16856,-3016,860,-706,64,-71
4879,843,778,976,670,837,16944,-2980,952,-687,-1,-86
4882,843,773,976,671,841,16960,-3064,768,-679,-78,-73
4885,848,784,977,671,845,16816,-2984,676,-666,-170,-71
4888,848,770,976,659,837,16896,-2928,736,-649,-216,-130
4891,848,768,980,647,840,16956,-2872,604,-658,-118,-112
4894,848,773,982,651,843,16916,-2836,764,-679,-139,-131
4897,851,776,979,645,838,17088,-2716,688,-683,-52,-185
4900,849,777,975,647,842,17060,-2832,680,-700,18,-172
4903,843,775,971,646,843,16912,-2832,632,-743,138,-209
4906,858,784,972,645,844,16936,-2892,708,-727,128,-194
4909,862,781,970,644,857,16844,-2896,668,-710,43,-187
4912,880,776,970,642,869,16936,-2928,608,-753,39,-185
4915,862,769,975,646,877,16880,-2872,780,-763,36,-188
4918,859,762,975,651,885,16924,-2784,632,-794,104,-173
4921,857,767,976,656,895,16904,-2840,708,-768,56,-165
4924,855,758,976,657,912,16756,-2980,668,-733,-82,-143
4927,852,751,980,657,931,16920,-2816,784,-747,58,-151
4930,848,751,988,660,948,17012,-2792,952,-750,120,-119
4933,848,752,985,658,973,17000,-3008,792,-714,70,-127
4936,842,754,987,666,986,16908,-2952,964,-721,4,-94
4939,831,773,979,663,1006,16952,-2948,964,-714,-51,-118
4942,818,783,977,663,1039,17048,-2948,940,-747,-37,-95
4945,831,781,977,671,1054,17000,-2888,968,-727,-15,-126
4948,833,782,972,675,1074,17092,-2864,1048,-759,-62,-91
4951,832,772,974,677,1094,17136,-2784,888,-776,-59,-80
4954,839,769,973,681,1107,17172,-2776,904,-794,-81,-84
4957,841,768,971,678,1136,17100,-2740,748,-822,-117,-42
4960,829,767,973,679,1151,17168,-2788,852,-847,-124,-81
4963,831,769,969,677,1168,17072,-2720,1008,-830,-48,-42
4966,832,773,965,671,1189,17072,-2712,808,-824,-79,-65
4969,833,775,976,674,1199,17036,-2776,804,-790,-41,-66
4972,835,783,974,675,1221,17056,-2760,736,-801,-25,-48
4975,832,785,975,678,1235,16940,-2756,836,-774,14,-81
4978,830,784,976,675,1251,16976,-2772,724,-770,60,-85
4981,833,770,976,674,1267,17020,-2776,896,-780,126,-96
4984,832,784,967,675,1276,16900,-2836,692,-790,243,-132
4987,832,785,974,681,1293,16952,-2808,740,-822,246,-124
4990,834,769,972,682,1309,16912,-2680,732,-861,272,-110
4993,832,775,974,677,1318,16972,-2720,792,-883,273,-104
4996,830,769,967,684,1335,16984,-2736,840,-902,227,-124
4999,833,767,969,683,1343,16860,-2708,864,-993,320,-115
5002,835,762,973,683,1353,16988,-2824,844,-971,369,-109
5005,842,762,970,684,1367,17080,-2756,628,-1039,350,-69
5008,833,764,966,676,1375,17000,-2704,712,-1048,337,-51
5011,837,777,971,678,1389,16892,-2700,704,-1100,284,-41
5014,843,768,971,674,1392,16852,-2672,740,-1132,255,-10
5017,841,773,971,678,1399,16852,-2576,960,-1146,209,-24
5020,843,775,971,675,1408,16904,-2744,840,-1143,218,6
5023,842,780,972,679,1423,16944,-2676,924,-1194,145,12
5026,839,778,967,676,1424,16880,-2808,1008,-1170,152,44
5029,834,777,967,667,1426,16964,-2896,892,-1224,252,35
5032,832,779,973,668,1429,16720,-2728,784,-1239,143,-10
5035,848,774,974,669,1442,16860,-2852,928,-1157,40,49
5038,833,767,972,673,1446,16804,-2744,736,-1247,-69,42
5041,837,769,966,669,1453,16944,-2848,720,-1229,-162,39
5044,832,765,969,670,1456,16872,-2852,792,-1170,-102,40
5047,843,757,966,675,1456,17044,-2860,828,-1095,-87,73
5050,845,757,976,675,1461,17116,-2816,816,-1095,-43,40
5053,844,758,971,677,1471,17112,-2832,704,-1082,13,4
5056,842,761,971,675,1472,17072,-2800,760,-1065,56,17
5059,844,757,975,675,1472,16940,-2796,644,-1034,50,20
5062,839,759,970,680,1477,16924,-2736,588,-1025,7,35
5065,840,763,967,682,1479,16928,-2784,864,-1016,-100,14
5068,844,764,966,684,1483,16796,-2876,924,-976,-234,50
5071,841,766,970,681,1485,16820,-2920,828,-1001,-344,29
5074,838,765,971,679,1488,16956,-2844,908,-1009,-340,45
5077,839,768,971,677,1488,17000,-2864,792,-1007,-340,61
5080,832,767,975,679,1487,17072,-2832,1028,-1032,-325,82
5083,833,763,977,682,1492,17136,-2860,928,-1095,-249,42
5086,823,761,976,681,1494,17132,-2828,1044,-1128,-209,60
5089,823,767,976,683,1502,17236,-2720,1008,-1151,-143,54
5092,824,765,967,685,1506,17200,-2744,1040,-1152,-68,45
5095,830,773,973,685,1503,17164,-2784,1056,-1157,-80,63
5098,828,773,965,678,1514,17224,-2736,1076,-1161,-78,92
5101,829,775,967,675,1523,17148,-2672,940,-1121,-119,100
5104,828,779,968,667,1535,17148,-2648,784,-1141,-182,101
5107,833,775,963,667,1535,17176,-2616,788,-1169,-159,108
5110,837,771,965,667,1535,17040,-2580,860,-1181,-159,86
5113,837,770,966,674,1569,17100,-2656,744,-1225,-167,64
5116,845,767,969,675,1575,16888,-2572,844,-1260,-87,25
5119,844,773,963,674,1584,17016,-2644,872,-1259,48,7
5122,844,777,960,671,1599,17024,-2684,832,-1308,196,-28
5125,846,779,962,683,1602,17072,-2692,744,-1318,361,-16
5128,843,784,962,685,1606,16980,-2724,792,-1335,423,-22
5131,842,787,963,688,1616,16904,-2828,860,-1332,464,-31
5134,845,787,963,688,1622,16860,-2788,888,-1332,503,-33
5137,839,787,968,692,1635,16888,-2872,932,-1326,469,-28
5140,838,801,969,693,1648,16808,-2832,848,-1297,412,-60
5143,835,784,969,693,1648,16964,-2852,968,-1348,394,-29
5146,832,781,972,697,1666,17012,-2884,868,-1294,340,-29
5149,836,774,968,701,1671,16900,-2916,928,-1285,262,-3
5152,842,769,970,695,1685,16932,-2852,952,-1334,251,-16
5155,845,768,967,694,1699,17168,-2876,1064,-1337,366,12
5158,829,766,971,688,1700,17136,-2828,808,-1327,376,-1
5161,837,763,967,689,1715,17108,-2796,832,-1323,357,11
5164,845,762,973,691,1722,17192,-2740,868,-1367,338,9
5167,847,766,970,699,1737,17044,-2776,896,-1386,310,14
5170,848,763,969,698,1752,17040,-2768,892,-1398,283,0
5173,848,766,967,697,1752,16944,-2704,1060,-1382,190,-40
5176,846,767,969,701,1769,16980,-2812,964,-1384,129,-37
5179,843,769,975,697,1776,16948,-2896,924,-1390,136,-76
5182,843,771,974,695,1781,16976,-2912,972,-1297,118,-102
5185,842,775,970,695,1802,16840,-3012,884,-1260,-12,-127
5188,841,777,975,690,1807,16996,-2968,864,-1181,-31,-130
5191,844,771,975,687,1814,17000,-2920,720,-1128,-18,-156
5194,845,770,973,687,1829,16956,-2888,824,-1076,-53,-151
5197,848,766,974,687,1829,16972,-2872,764,-1060,-79,-175
5200,848,766,971,691,1841,17100,-2856,888,-1037,-14,-204
5203,848,758,971,688,1850,17024,-2812,888,-985,-15,-218
5206,848,757,969,677,1850,16972,-2828,748,-991,58,-233
5209,847,764,966,687,1863,17088,-2720,852,-973,173,-235
5212,848,769,961,687,1867,17112,-2728,884,-959,215,-228
5215,848,774,960,688,1875,17056,-2676,920,-951,239,-225
5218,846,779,961,695,1883,17008,-2776,848,-937,196,-212
5221,848,784,960,707,1874,16928,-2816,808,-938,169,-204
5224,846,784,959,691,1891,17024,-2908,840,-914,61,-174
5227,842,784,960,697,1886,16932,-2844,988,-899,48,-140
5230,836,782,961,696,1885,17036,-2892,1040,-867,-33,-163
5233,835,784,963,699,1894,17132,-2976,804,-855,-57,-154
5236,836,788,960,697,1888,17176,-2916,1032,-906,-45,-145
5239,829,790,961,695,1890,17112,-2976,920,-912,-50,-130
5242,827,793,960,699,1887,17104,-2760,972,-933,11,-113
5245,820,794,961,695,1879,17096,-2876,772,-1027,54,-127
5248,817,793,959,700,1885,17208,-2880,1028,-1067,79,-113
5251,823,782,963,698,1885,17076,-2888,988,-1139,53,-149
5254,825,774,962,690,1885,17012,-2868,1100,-1195,46,-145
5257,828,767,961,688,1888,17084,-2900,1124,-1241,79,-186
5260,832,767,966,689,1883,17152,-2852,1040,-1237,60,-167
5263,827,772,967,688,1889,17148,-2796,1072,-1220,25,-155
5266,830,778,971,688,1892,17236,-2844,1028,-1210,83,-119
5269,832,778,963,691,1891,17088,-2836,1244,-1186,156,-121
5272,832,781,970,694,1898,17124,-2736,1088,-1199,361,-106
5275,835,772,965,695,1902,16884,-2812,1048,-1173,348,-130
5278,833,775,969,699,1895,17008,-2912,1000,-1129,456,-71
5281,831,775,964,703,1907,16896,-2832,1012,-1161,570,-118
5284,832,782,963,701,1906,17056,-2888,904,-1130,611,-78
5287,831,783,965,699,1908,16860,-2820,784,-1082,558,-76
5290,830,785,961,702,1913,16876,-2736,1016,-1097,531,-108
5293,831,787,961,702,1917,16900,-2776,1052,-1092,473,-94
5296,831,787,965,708,1924,16888,-2740,1072,-1111,439,-100
5299,834,784,961,691,1929,16876,-2756,984,-1107,442,-116
5302,841,784,963,705,1931,16960,-2604,1032,-1130,455,-123
5305,842,781,959,713,1936,17068,-2640,1048,-1149,422,-121
5308,845,774,961,704,1934,16952,-2584,944,-1161,500,-120
5311,848,769,961,705,1939,17068,-2564,888,-1215,565,-120
5314,848,767,957,707,1950,16904,-2608,652,-1250,553,-148
5317,848,789,960,719,1953,16800,-2636,804,-1295,515,-157
5320,848,779,960,713,1959,16744,-2736,832,-1375,447,-157
5323,843,785,960,709,1958,16784,-2752,980,-1448,443,-174
5326,847,800,958,701,1958,16764,-2872,884,-1529,370,-193
5329,845,807,956,711,1966,16632,-2852,920,-1580,276,-177
5332,842,803,956,706,1971,16780,-2924,804,-1602,169,-188
5335,841,810,959,704,1975,16736,-3028,828,-1655,130,-161
5338,834,807,959,703,1974,16756,-3084,772,-1651,83,-173
5341,835,811,976,699,1979,16736,-3016,888,-1680,61,-125
5344,838,798,960,695,1983,16772,-3052,948,-1700,65,-137
5347,841,797,966,690,1984,16816,-2996,904,-1675,114,-98
5350,838,784,965,689,1986,16840,-3100,876,-1672,175,-76
5353,834,781,963,686,1987,16984,-3204,800,-1651,190,-91
5356,845,794,960,682,1989,16936,-3232,668,-1607,272,-61
5359,843,771,967,685,1999,16880,-3236,872,-1602,254,-68
5362,841,769,966,688,1999,16836,-3252,552,-1580,223,-68
5365,847,769,970,688,2003,16852,-3216,672,-1539,224,-73
5368,848,770,967,691,2000,16824,-3340,752,-1467,242,-71
5371,851,770,971,691,2000,16748,-3300,708,-1376,181,-73
5374,848,775,973,694,2006,16668,-3380,692,-1279,121,-87
5377,848,774,976,697,2006,16928,-3308,692,-1206,49,-72
5380,848,778,976,698,2011,16868,-3356,776,-1117,24,-75
5383,848,769,976,703,2017,16912,-3276,732,-1084,-62,-52
5386,848,773,979,703,2021,17020,-3116,764,-1004,-95,-69
5389,848,771,977,701,2025,16988,-3164,728,-949,-70,-74
5392,846,773,991,699,2030,16932,-3140,944,-840,-59,-71
5395,843,775,983,702,2037,16972,-3120,924,-823,-26,-97
5398,842,773,985,695,2046,17060,-2980,1032,-789,10,-108
5401,845,771,983,692,2045,17016,-3072,972,-772,-81,-83
5404,848,766,991,698,2053,16956,-3084,916,-731,-157,-123
5407,847,762,989,695,2064,17040,-3100,1080,-783,-128,-110
5410,849,754,991,691,2064,17052,-2968,1196,-769,-182,-126
5413,848,754,1001,692,2080,17028,-2940,1008,-763,-223,-99
5677,847,801,969,737,2090,16900,-3096,1028,-1245,292,-281
5681,863,800,974,743,2093,16928,-2984,1192,-1236,211,-270
5684,834,780,962,711,2070,16936,-2984,1196,-1256,212,-282
5687,841,782,963,706,2064,16856,-3064,1196,-1236,169,-274
5690,843,783,962,705,2064,16784,-3064,1076,-1207,155,-278
5693,841,783,969,704,2059,16892,-2976,1144,-1165,142,-283
5696,835,783,967,702,2061,16756,-3096,944,-1104,154,-245
5699,843,784,967,701,2055,16856,-3032,956,-1097,90,-224
5702,842,784,965,711,2055,16856,-3032,880,-1062,77,-217
5705,843,783,969,694,2047,16840,-3064,800,-1043,60,-217
5708,845,785,968,688,2042,16756,-3120,820,-1030,92,-200
5711,838,784,967,688,2047,16832,-3200,944,-1034,65,-193
5714,843,783,967,683,2054,16852,-3168,672,-1034,101,-173
5717,837,781,961,685,2059,16800,-3168,872,-1027,167,-185
5720,839,788,961,685,2045,16820,-3168,844,-1021,105,-182
5723,832,781,961,686,2045,16696,-3200,860,-974,121,-164
5726,833,781,959,691,2053,16732,-3180,696,-935,101,-158
5729,832,784,960,687,2043,16740,-3196,708,-929,2,-141
5732,833,784,957,688,2046,16852,-3220,672,-934,35,-149
5735,837,785,960,690,2047,16844,-3104,712,-900,-11,-132
5738,834,784,959,689,2039,16808,-3104,908,-880,-16,-87
5741,827,786,960,690,2034,16804,-3100,684,-852,-62,-86
5744,832,783,959,689,2031,16776,-3156,780,-841,-32,-52
5747,832,773,971,697,2027,16764,-3060,780,-862,-48,-32
5750,834,772,959,694,2031,16880,-3228,876,-839,-10,19
5753,825,786,961,699,2026,16740,-3108,800,-902,-86,0
5756,826,781,973,703,2023,16836,-3120,792,-982,-57,5
5759,822,777,976,720,2022,16872,-3244,708,-936,-46,34
5762,822,781,976,718,2017,16912,-3148,788,-1067,-37,68
5765,822,780,979,691,2013,16796,-3200,708,-1134,-351,33
5768,827,767,989,689,1995,16520,-3316,808,-1063,-444,89
5771,823,765,993,688,1978,16888,-3212,636,-998,-158,61
5774,832,759,993,688,1963,16776,-3188,908,-1038,-209,-11
5777,837,758,994,674,1936,16676,-3224,484,-962,-276,21
5780,844,750,995,673,1917,16812,-3240,840,-887,37,20
5783,848,752,1004,672,1888,16856,-3284,856,-793,93,29
5786,848,753,1005,679,1858,16768,-3316,672,-762,-10,39
5789,846,752,1008,684,1833,16640,-3320,676,-670,-119,74
5792,848,752,1013,682,1796,16704,-3424,740,-587,-101,74
5795,851,746,1015,676,1759,16768,-3296,668,-532,-150,59
5798,850,750,1015,681,1719,16784,-3368,668,-453,-149,75
5801,846,749,1019,686,1679,16920,-3360,672,-423,-105,61
5804,848,750,1023,687,1634,16888,-3372,828,-311,76,62
5807,846,750,1016,688,1598,16828,-3236,824,-252,140,12
5810,846,753,1017,688,1561,16828,-3356,700,-226,149,20
5813,847,756,1021,692,1521,16984,-3256,976,-150,192,6
5816,835,757,1019,696,1488,17068,-3212,960,-111,206,-8
5819,829,757,1015,695,1457,17008,-3144,820,-89,41,12
5822,827,761,1011,699,1429,16888,-3184,768,-45,-276,-14
5825,827,758,1013,698,1399,17072,-2988,1056,-37,-503,12
5828,825,747,1006,715,1373,17292,-2940,808,-121,-511,30
5831,821,739,1006,689,1344,17348,-2916,1244,42,-428,95
5834,825,737,1002,691,1323,17356,-2844,896,-144,-661,35
5837,821,744,994,690,1297,17352,-2872,940,-130,-720,68
5840,824,752,994,693,1278,17152,-2804,1024,-174,-738,41
5843,827,749,986,690,1257,17280,-2780,1200,-188,-764,58
5846,829,762,989,688,1238,17280,-2560,976,-251,-830,36
5849,829,767,986,693,1213,17256,-2592,1068,-281,-783,0
5852,835,771,983,688,1197,17092,-2524,984,-310,-720,-22
5855,834,775,979,693,1177,17092,-2608,1028,-320,-679,-46
5858,834,777,981,700,1163,17060,-2632,1116,-326,-637,-43
5861,828,778,983,704,1149,17124,-2768,896,-315,-496,-68
5864,836,790,978,704,1136,16972,-2680,924,-323,-368,-47
5867,838,777,983,704,1115,17008,-2628,1072,-335,-310,-41
5870,837,780,982,711,1104,16992,-2736,1064,-380,-251,-47
5873,840,773,989,704,1088,17036,-2708,796,-409,-131,-49
5876,848,770,987,702,1084,17160,-2664,1056,-492,-26,-49
5879,838,775,982,699,1068,17072,-2640,976,-517,122,-69
5882,839,770,986,701,1055,17124,-2700,876,-537,319,-70
5885,835,773,982,699,1045,17092,-2640,1020,-596,394,-123
5888,842,771,981,699,1031,17024,-2644,824,-538,504,-96
5891,837,769,976,701,1023,17044,-2544,972,-503,657,-88
5894,838,774,976,697,1013,17068,-2476,796,-450,587,-63
5897,833,771,979,698,1001,16904,-2536,716,-446,242,-74
5900,834,771,980,695,992,17016,-2540,960,-410,272,-29
5903,834,775,987,691,986,17004,-2632,960,-374,147,17
5906,836,769,982,688,979,17024,-2644,828,-388,27,-21
5909,837,766,979,681,976,17008,-2556,936,-368,39,-29
5912,832,775,981,675,960,17116,-2448,904,-495,11,-70
5915,834,772,981,683,959,16992,-2556,1044,-500,-62,-88
5918,831,773,980,678,951,17124,-2568,1084,-544,2,-175
5921,839,768,981,684,944,17120,-2596,852,-598,-174,-198
5924,835,767,985,685,944,16992,-2608,1016,-611,-254,-268
5927,835,768,978,687,937,17032,-2636,1032,-694,-185,-322
5930,835,766,983,688,931,16944,-2616,968,-689,-352,-341
5933,839,767,983,689,929,17048,-2624,920,-719,-269,-418
5936,838,763,977,689,917,17148,-2668,1008,-716,-130,-390
5939,841,761,976,693,918,16976,-2664,920,-737,-255,-378
5942,837,761,977,691,912,16976,-2736,972,-690,-227,-348
5945,839,758,978,689,908,16908,-2768,1032,-704,-185,-302
5948,841,757,978,689,907,16956,-2760,1052,-684,-138,-284
5951,837,755,976,689,903,16980,-2856,1096,-647,-136,-228
5954,841,754,975,688,904,16860,-2884,1012,-639,-133,-222
5957,839,759,974,691,901,16852,-2844,1100,-618,-86,-186
5960,839,762,972,689,891,16824,-2840,1176,-633,-33,-183
5963,839,763,987,688,893,16936,-2880,1056,-629,-6,-145
5966,839,766,971,688,889,17056,-2868,1068,-670,13,-148
5969,838,768,975,687,884,16972,-2776,1064,-634,27,-155
5972,838,762,976,684,886,17016,-2740,1004,-644,32,-122
5975,836,764,967,685,882,17036,-2796,960,-640,91,-119
5978,838,764,974,679,880,17004,-2820,916,-640,26,-124
5981,837,768,971,682,880,17028,-2816,816,-620,-10,-105
5984,842,767,969,681,873,17088,-2676,1056,-621,-44,-108
5987,845,771,969,678,877,17128,-2756,1016,-594,-112,-99
5990,837,773,988,683,870,17100,-2748,1176,-564,-88,-108
5993,841,777,966,687,869,17100,-2724,1116,-565,-104,-112
5996,835,776,970,683,871,17124,-2668,1072,-564,-131,-104
5999,841,775,967,695,865,16984,-2784,844,-548,-126,-134
6002,840,777,967,688,863,16992,-2636,1032,-518,-172,-135
6005,837,773,967,691,862,16884,-2696,1052,-510,-179,-149
6008,834,771,960,700,859,17000,-2732,972,-489,-185,-167
6011,832,775,969,689,859,17020,-2752,1036,-479,-166,-179
6014,835,777,965,691,853,16928,-2804,996,-478,-178,-167
6017,835,773,967,690,854,17052,-2720,1124,-488,-164,-174
6020,832,769,962,694,855,17052,-2748,976,-494,-159,-187
6023,832,771,966,678,854,16992,-2840,1040,-536,-116,-175
6026,833,770,967,688,850,16960,-2748,1060,-522,-113,-179
6029,832,767,965,690,849,17108,-2796,1328,-541,-106,-188
6032,830,767,966,687,849,17028,-2748,1100,-514,-94,-166
6035,827,768,970,690,855,16940,-2708,1200,-508,-28,-151
6038,827,756,971,689,854,17080,-2744,1128,-486,-34,-119
6041,831,766,973,687,853,16900,-2752,1188,-469,-25,-142
6044,832,760,976,686,853,17072,-2632,1160,-463,27,-131
6047,822,756,976,685,855,17008,-2640,1112,-446,96,-132
6050,837,758,976,684,877,17020,-2664,1048,-506,141,-149
6053,841,752,976,692,903,17204,-2556,968,-544,167,-135
6056,837,752,976,693,941,17088,-2660,960,-521,163,-111
6059,832,751,978,691,971,17160,-2644,944,-565,182,-138
6062,839,758,976,699,999,17044,-2524,932,-623,182,-137
6065,843,763,975,700,1042,17204,-2640,1004,-667,234,-129
6068,853,777,976,706,1070,17112,-2564,844,-670,264,-125
6071,848,775,976,711,1095,17168,-2596,1060,-675,164,-147
6074,843,769,976,713,1119,17020,-2504,912,-710,122,-151
6077,839,762,971,712,1142,17136,-2600,896,-742,123,-176
6080,847,767,971,707,1166,16960,-2412,1052,-743,142,-183
6083,848,783,974,709,1187,16956,-2572,944,-727,147,-222
6086,848,785,973,705,1210,17036,-2652,952,-710,149,-257
6089,843,794,976,704,1223,16996,-2600,988,-674,101,-271
6092,834,794,976,697,1229,16940,-2684,1008,-634,60,-312
6095,830,790,976,692,1249,17044,-2592,920,-598,55,-318
6098,833,787,974,693,1264,17036,-2656,884,-591,-11,-317
6101,831,784,971,694,1277,16964,-2628,960,-550,-33,-326
6104,833,777,972,697,1296,17032,-2596,988,-549,-69,-340
6107,833,766,974,699,1309,17048,-2604,1024,-513,-85,-343
6110,833,763,976,701,1327,17008,-2568,1028,-542,-124,-344
6113,832,762,979,702,1346,17000,-2620,984,-505,-225,-343
6116,831,759,976,706,1360,17072,-2620,1044,-507,-267,-323
6119,830,765,979,707,1382,16960,-2576,1156,-496,-255,-356
6122,835,766,981,707,1395,16944,-2668,1216,-512,-260,-307
6125,833,767,979,701,1411,16896,-2572,1172,-546,-200,-312
6128,832,765,976,695,1435,16940,-2460,1240,-595,-87,-322
6131,832,767,976,699,1455,17000,-2576,1176,-617,-46,-298
6134,833,765,976,693,1479,16960,-2552,1228,-625,-10,-289
6137,833,773,973,685,1501,16992,-2520,1188,-664,-10,-226
6140,833,768,971,687,1507,17080,-2552,1224,-727,70,-214
6143,848,770,970,688,1535,17144,-2544,1132,-838,111,-218
6146,833,769,969,699,1563,17132,-2656,1140,-879,202,-189
6149,835,777,974,688,1583,17300,-2564,1208,-967,291,-161
6152,850,783,969,690,1603,17212,-2604,1284,-1015,320,-173
6155,836,786,970,691,1612,17068,-2588,1140,-1059,330,-161
6158,835,787,968,694,1627,17160,-2628,1196,-1054,356,-151
6161,833,787,967,694,1645,17072,-2664,1196,-1042,364,-175
6164,832,780,971,702,1655,17048,-2624,1112,-1062,439,-216
6167,832,775,973,702,1678,16924,-2552,1084,-973,414,-218
6170,831,768,971,704,1687,17032,-2704,1056,-952,420,-241
6173,832,759,975,704,1694,17064,-2648,1204,-945,435,-244
6176,833,755,974,703,1715,17080,-2656,1332,-963,472,-265
6179,831,754,977,707,1727,17024,-2596,1308,-959,442,-241
6182,816,752,979,706,1744,17152,-2516,1296,-991,382,-252
6185,837,750,979,705,1762,17132,-2500,1212,-983,342,-247
6188,839,745,978,706,1773,17044,-2452,1084,-978,300,-251
6191,841,741,983,708,1791,17096,-2440,1168,-1001,271,-227
6194,839,746,979,718,1807,17076,-2356,1132,-1011,255,-250
6197,843,749,979,720,1821,17048,-2300,1068,-1021,280,-248
6200,844,757,976,720,1839,17024,-2332,1208,-1049,289,-271
6203,843,768,979,722,1838,17048,-2360,1152,-1003,200,-292
6206,839,773,976,725,1854,17164,-2340,1164,-1052,210,-342
6209,839,768,975,721,1867,17180,-2364,1132,-1063,156,-364
6212,848,786,973,721,1871,17112,-2264,1192,-1073,103,-399
6215,846,783,971,719,1892,17208,-2260,944,-1111,86,-434
6218,843,781,970,720,1901,17100,-2176,1164,-1121,25,-475
6221,848,775,967,720,1903,17324,-2332,1156,-1127,110,-472
6224,848,779,958,723,1908,17184,-2328,1232,-1063,79,-492
6227,848,779,960,722,1918,17324,-2372,1232,-1117,148,-483
6230,848,781,958,723,1927,17260,-2380,1380,-1110,211,-501
6233,848,779,955,723,1936,17236,-2412,1240,-1074,203,-503
6236,846,773,975,727,1938,17124,-2316,1220,-1080,234,-478
6239,846,782,954,727,1943,17052,-2324,1232,-1078,197,-515
6242,846,784,951,729,1947,16960,-2308,1232,-1040,130,-483
6245,839,784,951,730,1953,16984,-2420,1332,-1048,118,-509
6248,848,786,955,722,1965,16912,-2372,1140,-1075,119,-481
6251,848,784,957,724,1968,17020,-2444,1228,-1077,148,-499
6254,844,786,955,718,1971,16940,-2480,1420,-1096,214,-489
6257,837,784,956,711,1977,17000,-2368,1376,-1087,269,-491
6260,847,783,957,710,1985,16936,-2532,1304,-1152,385,-499
6263,847,777,951,704,1991,17012,-2516,1168,-1095,426,-478
6266,847,774,955,702,1994,17044,-2452,1232,-1113,472,-473
6269,848,770,947,698,1994,16968,-2576,1348,-1136,526,-456
6272,848,767,954,704,1999,16948,-2580,1200,-1140,531,-460
6275,848,773,954,693,2005,17020,-2560,1280,-1167,517,-444
6278,848,776,949,690,2016,16812,-2648,1116,-1170,454,-431
6281,848,783,951,688,2017,16996,-2760,1208,-1221,385,-399
6284,845,784,950,690,2025,16948,-2664,1304,-1253,326,-420
6287,845,789,949,695,2032,17036,-2668,1068,-1264,281,-402
6290,844,789,947,691,2038,16952,-2808,1040,-1293,304,-399
6293,843,780,949,706,2055,17076,-2756,1108,-1296,345,-413
6296,841,773,959,697,2064,17040,-2696,1180,-1290,367,-396
6299,833,771,954,701,2068,17076,-2728,1192,-1337,426,-413
6302,844,770,954,701,2082,17060,-2708,1268,-1292,409,-378
6305,835,768,959,695,2087,16996,-2616,1364,-1266,275,-394
6308,832,772,960,699,2099,17024,-2644,1260,-1235,199,-364
6311,833,767,960,699,2102,17096,-2768,1368,-1193,71,-394
6314,830,771,957,703,2112,17044,-2640,1204,-1185,6,-368
6317,832,763,955,704,2123,16984,-2652,1240,-1123,-9,-386
6320,839,758,960,704,2127,17192,-2444,1276,-1096,33,-369
6323,838,758,961,706,2133,17152,-2388,1508,-1059,53,-351
6326,839,763,961,711,2143,17088,-2328,1340,-1019,70,-307
6329,839,768,960,711,2146,17064,-2260,1348,-995,70,-334
6332,839,780,954,710,2158,16924,-2132,1344,-1021,37,-315
6335,851,781,958,707,2162,17016,-2000,1380,-1024,82,-319
6338,834,782,949,711,2173,17024,-2172,1244,-1053,152,-308
6341,835,779,944,714,2182,16976,-2012,1120,-1056,212,-332
6344,834,784,946,705,2192,16972,-2120,1228,-1090,312,-317
6347,835,784,941,705,2194,16988,-2208,1096,-1124,360,-324
6350,833,788,943,707,2198,17052,-2212,1156,-1231,441,-333
6353,832,789,941,704,2208,17060,-2356,1116,-1276,440,-298
6356,837,789,935,703,2221,17004,-2288,884,-1329,404,-270
6359,835,789,935,704,2224,16832,-2432,1012,-1390,286,-260
6362,833,795,935,701,2227,16860,-2456,1132,-1449,233,-218
6365,832,793,934,698,2239,16916,-2512,1260,-1551,300,-245
6368,833,787,938,695,2244,16928,-2624,1128,-1590,315,-215
6371,832,790,935,699,2255,17024,-2600,992,-1724,316,-235
6374,830,803,937,704,2258,16940,-2548,1088,-1909,360,-240
6377,833,799,933,713,2262,16864,-2888,1124,-1773,398,-230
6380,833,801,937,704,2271,16968,-2772,956,-1890,372,-182
6383,831,805,939,703,2275,16844,-2768,984,-1924,338,-172
6386,831,807,939,704,2289,16920,-2916,828,-1966,295,-159
6389,831,806,941,698,2294,16972,-2912,784,-1984,280,-153
6392,832,803,942,698,2290,16936,-2820,836,-2015,313,-195
6395,827,794,944,698,2307,16800,-2968,956,-2014,339,-172
6398,831,800,946,695,2304,16748,-2912,948,-1976,406,-208
6401,831,799,945,696,2309,16668,-3008,900,-1930,429,-187
6404,832,802,954,694,2320,16572,-3104,996,-1889,408,-189
6407,832,805,957,688,2320,16584,-3028,908,-1882,380,-180
6410,832,795,958,688,2323,16688,-3028,980,-1849,395,-146
6413,831,791,960,688,2329,16660,-2964,860,-1774,295,-103
6416,831,784,965,688,2327,16664,-3068,920,-1802,257,-127
6419,830,771,964,687,2343,16736,-2960,1028,-1750,318,-104
6422,834,769,962,689,2339,16776,-2900,1224,-1711,335,-90
6425,831,770,962,689,2338,16912,-2900,976,-1624,364,-16
6428,829,774,973,707,2347,16876,-2820,1028,-1632,421,-2
6431,829,778,959,691,2337,16772,-2840,1092,-1574,453,51
6434,827,782,957,689,2342,16832,-2964,932,-1558,356,61
6437,831,779,957,688,2335,16744,-2940,992,-1503,271,151
6440,832,773,957,704,2320,16592,-3028,852,-1489,118,153
6443,833,775,953,689,2321,16664,-3096,864,-1509,47,157
6446,836,775,957,690,2313,16764,-3180,668,-1522,-19,188
6449,837,782,950,688,2303,16764,-3256,672,-1530,-3,187
6452,837,784,947,682,2281,16684,-3236,852,-1564,-12,210
6455,844,784,950,685,2240,16684,-3244,696,-1548,7,263
6458,845,778,954,686,2189,16688,-3384,632,-1537,-64,258
6461,846,772,958,685,2128,16792,-3400,692,-1503,-152,281
6464,845,768,973,687,2067,16688,-3436,676,-1466,-169,320
6467,837,763,961,684,2011,16936,-3496,644,-1497,-61,255
6470,845,744,976,675,1949,16668,-3556,732,-1327,-131,292
6473,833,758,978,691,1901,16648,-3464,732,-1228,-200,258
6476,835,758,983,690,1852,16780,-3432,760,-1155,-242,246
6479,835,753,996,677,1803,16668,-3404,748,-1026,-346,215
6482,835,754,995,657,1759,16812,-3388,940,-946,-420,205
6485,834,749,992,656,1713,16792,-3280,852,-859,-354,141
6488,839,761,999,661,1670,16904,-3220,1028,-767,-314,102
6491,833,752,998,658,1634,17020,-3000,888,-583,-307,66
6494,830,747,997,663,1597,17148,-2992,980,-450,-186,80
6497,828,748,997,667,1559,17192,-2864,1116,-304,-176,63
6500,826,737,997,673,1520,17060,-2776,1192,-189,-425,77
6503,822,739,996,679,1483,17052,-2696,1076,-88,-631,93
6506,828,739,990,679,1460,17296,-2584,1088,-23,-648,102
6509,825,734,987,686,1425,17300,-2640,1180,64,-700,151
6512,829,734,983,688,1398,17204,-2516,1052,117,-771,131
6515,831,737,978,690,1375,17184,-2480,1312,113,-779,140
6518,826,742,975,693,1346,17296,-2336,1196,105,-876,136
6521,834,752,971,701,1324,17252,-2312,1316,41,-830,107
6524,835,757,970,695,1301,17280,-2336,1432,63,-794,105
6527,842,759,961,702,1279,17328,-2348,1452,-23,-763,94
6530,848,778,961,701,1259,17380,-2328,1404,-26,-599,104
6533,833,757,954,709,1238,17472,-2364,1216,-104,-479,120
6536,830,776,956,707,1219,17340,-2336,1300,-211,-375,63
6539,832,784,945,704,1200,17464,-2348,1316,-326,-305,32
6542,827,781,944,709,1190,17368,-2308,1252,-403,-229,31
6545,832,769,940,706,1168,17336,-2388,1372,-514,-131,28
6548,838,787,948,700,1152,17332,-2436,1212,-625,-41,-5
6551,824,778,949,697,1134,17236,-2396,1216,-673,13,-5
6554,830,787,945,694,1122,17316,-2464,1216,-748,129,-33
6557,828,791,945,688,1107,17204,-2420,1052,-811,214,-73
6560,827,791,945,689,1094,17192,-2452,1084,-776,261,-138
6563,837,791,941,688,1078,17200,-2504,1088,-837,346,-147
6566,822,794,944,688,1063,17108,-2456,1128,-820,481,-196
6569,830,789,944,689,1055,17088,-2560,1092,-782,497,-201
6572,835,794,950,681,1041,17024,-2576,1000,-774,487,-232
6575,839,784,946,682,1018,16976,-2536,1212,-765,529,-252
6578,845,784,938,656,994,17020,-2556,1096,-703,456,-267
6581,832,795,929,685,969,17028,-2552,1084,-637,410,-269
6584,835,783,942,694,960,17000,-2540,1044,-570,329,-269
6587,841,783,951,694,942,17152,-2520,1084,-581,301,-282
6590,833,773,954,683,922,17044,-2596,1244,-470,158,-258
6593,839,777,955,677,909,17128,-2448,1112,-477,106,-285
6596,844,781,963,689,886,17132,-2512,1072,-447,76,-270
6599,842,777,961,707,871,17104,-2428,1168,-423,-1,-312
6602,841,778,965,713,859,17016,-2408,1124,-394,-57,-315
6605,841,783,961,706,849,17068,-2316,1228,-354,-154,-284
6608,841,768,976,752,827,17100,-2340,1360,-353,-186,-307
6611,841,779,976,722,805,17056,-2244,1424,-348,-167,-315
6614,842,775,976,714,802,16992,-2268,1216,-360,-238,-297
6617,839,769,971,708,789,16932,-2276,1248,-363,-240,-288
6620,853,767,975,736,784,16920,-2212,1380,-396,-268,-286
6623,830,767,976,724,774,16976,-2324,1380,-423,-271,-269
6626,842,765,976,705,767,16948,-2252,1428,-462,-272,-215
6629,838,755,971,704,752,17016,-2300,1328,-515,-248,-181
6632,839,766,970,704,747,16880,-2284,1200,-565,-194,-158
6635,837,765,969,704,738,17132,-2356,1124,-642,-117,-145
6638,837,755,965,705,731,16900,-2448,1236,-710,-91,-114
6641,833,767,965,703,720,16856,-2488,1140,-792,-57,-101
6644,832,767,957,699,713,16856,-2540,1272,-811,-40,-73
6647,835,767,962,698,704,16816,-2628,1012,-883,-24,-128
6650,839,768,960,695,704,16872,-2684,1112,-924,-75,-122
6653,831,769,962,699,695,16852,-2680,1132,-915,-36,-109
6656,832,771,959,695,692,16908,-2668,1148,-924,13,-103
6659,835,771,978,698,683,17000,-2616,1244,-917,-21,-107
6662,836,770,944,708,679,16884,-2644,832,-890,-88,-64
6665,834,768,955,739,672,16992,-2548,1112,-864,-41,-96
6668,834,767,963,697,673,17072,-2560,1108,-856,191,-115
6671,838,768,967,678,661,16992,-2608,1116,-756,324,-60
6674,834,770,967,688,659,16964,-2400,1104,-894,521,-166
6677,832,769,969,713,656,17296,-2392,1004,-883,56,-3
6680,833,771,971,724,655,17060,-2672,1156,-898,202,-21
6683,836,771,965,695,645,17152,-2348,1008,-995,280,-72
6686,834,779,967,688,646,17036,-2384,936,-1086,127,-139
6689,835,784,963,701,640,17020,-2332,892,-1244,-29,-278
6692,834,786,966,701,635,17004,-2420,1024,-1211,-26,-339
6695,836,784,964,695,634,17200,-2396,1028,-1249,160,-382
6698,830,782,955,698,634,17088,-2588,1112,-1138,-12,-252
6701,835,783,959,694,630,16940,-2656,1104,-1161,-203,-201
6704,833,782,959,701,625,16968,-2604,1312,-1155,-266,-205
6707,831,782,958,705,624,16964,-2596,1152,-1210,-357,-256
6710,832,776,959,706,622,17168,-2588,1272,-1261,-395,-323
6713,832,774,960,707,619,17080,-2708,1368,-1309,-355,-338
6716,832,784,959,705,618,17204,-2740,1136,-1306,-180,-346
6719,834,777,963,705,613,17112,-2832,1500,-1185,-237,-316
6722,833,776,960,707,608,17104,-2788,1276,-1187,-150,-275
6725,832,775,957,712,611,17088,-2816,1320,-1098,16,-219
6728,834,771,959,709,609,17240,-2768,1464,-1069,217,-232
6731,834,768,959,718,608,17200,-2780,1132,-1030,342,-181
6734,835,773,955,706,604,17120,-2872,1392,-1005,394,-180
6737,833,774,957,707,602,17076,-2872,1140,-962,392,-187
