Time,MMG1,MMG2,MMG3,MMG4,EMG,AccelX,AccelY,AccelZ,GyroX,GyroY,GyroZ
0,885,805,997,777,1573,16940,-2556,1204,-852,-85,-105
4,877,797,999,778,1514,16980,-2600,1132,-850,-125,-99
7,848,778,988,752,1458,17016,-2684,1176,-888,-107,-109
10,853,777,985,751,1418,17060,-2560,1416,-929,-120,-87
13,850,773,985,739,1382,16944,-2628,1292,-931,-127,-118
16,853,775,991,735,1349,16960,-2684,1240,-927,-96,-80
19,851,771,989,738,1311,17032,-2708,1352,-947,-104,-90
22,849,772,991,737,1283,16940,-2648,1112,-991,-97,-101
25,855,771,987,737,1250,16952,-2664,1256,-1012,-78,-108
28,854,776,999,737,1219,16932,-2644,1284,-1006,-74,-63
31,857,776,991,733,1197,16964,-2740,1396,-998,-43,-69
34,858,777,994,737,1166,16896,-2700,1432,-995,0,-62
37,857,775,990,745,1140,16876,-2688,1312,-949,36,-53
40,859,779,993,743,1109,17072,-2616,1320,-967,53,-41
43,859,779,994,745,1088,16916,-2596,1368,-980,32,-43
46,858,779,993,743,1071,17040,-2632,1300,-1006,37,-26
49,868,781,993,742,1046,17140,-2568,1388,-1035,32,-14
52,861,781,990,749,1023,17060,-2660,1164,-1054,59,-37
55,862,784,991,747,1008,17244,-2756,1204,-1109,44,-8
58,861,783,992,750,981,17072,-2748,1152,-1110,95,-14
61,858,784,990,752,969,17116,-2712,1208,-1120,76,-4
64,855,779,993,752,953,17104,-2772,1168,-1108,74,-19
67,858,769,987,753,939,17148,-2704,1060,-1111,65,5
70,852,781,990,759,919,17088,-2820,1080,-1104,37,-38
73,853,781,996,754,902,16932,-2856,904,-1131,2,-29
76,862,781,988,753,896,17012,-2924,1036,-1117,6,-35
79,857,783,988,759,881,16996,-2788,1096,-1110,-32,-59
82,859,784,991,757,870,17032,-2884,1228,-1134,-68,-70
85,862,783,991,758,858,16916,-2788,1156,-1135,-98,-93
88,861,780,991,757,843,17104,-2748,1280,-1092,-92,-86
91,862,780,985,759,836,16916,-2672,1212,-1108,-81,-92
94,854,779,986,754,828,16880,-2816,1112,-1071,-71,-103
97,855,783,990,758,816,16924,-2768,1124,-1040,-110,-95
100,859,779,991,751,807,16872,-2776,1076,-1036,-102,-91
103,860,784,987,751,798,16836,-2712,1164,-1049,-105,-81
106,860,782,991,752,787,17008,-2716,1228,-1021,-90,-97
109,861,781,993,747,784,16960,-2752,1264,-1031,-101,-70
112,859,781,988,749,774,17044,-2752,1212,-1021,-75,-51
115,858,789,988,749,769,17000,-2748,1416,-1028,-68,-76
118,858,787,988,755,765,16992,-2780,1240,-1025,-46,-23
121,855,784,991,752,752,17152,-2676,1212,-1035,-20,-21
124,859,784,991,767,750,16972,-2760,1244,-1027,4,-1
127,857,783,991,752,746,17016,-2648,1248,-1010,-14,-17
130,860,781,991,754,740,17004,-2744,1216,-1052,-12,-20
133,859,775,990,755,734,17040,-2756,1248,-1048,-17,3
136,858,773,994,757,723,16992,-2748,1168,-1065,-34,-26
139,864,771,1002,755,720,16976,-2768,1288,-1046,-32,-8
142,863,774,994,755,720,17012,-2696,1304,-1083,-51,5
145,858,773,995,759,715,16992,-2648,1276,-1075,-62,9
148,862,779,991,778,711,17060,-2668,1332,-1056,-85,4
151,858,777,992,763,705,17144,-2616,1196,-1028,-91,21
154,859,778,989,755,703,17116,-2736,1316,-1026,-52,-9
157,861,782,988,754,699,17156,-2720,1332,-988,-75,-19
160,861,784,992,752,697,17176,-2848,1188,-975,-64,-14
163,864,781,1002,752,695,16988,-2756,1224,-960,-62,-14
166,860,779,995,747,688,17040,-2856,1204,-932,-86,-50
169,865,774,1007,751,685,17028,-2748,1072,-929,-55,-50
172,859,777,991,748,686,16932,-2828,1100,-930,-55,-53
175,860,779,991,745,683,17004,-2848,1084,-915,-78,-70
178,862,779,994,751,678,17020,-2792,1156,-959,-72,-98
181,856,781,991,751,675,16924,-2712,1268,-990,-60,-88
184,860,779,989,752,676,17144,-2832,1264,-1005,-57,-91
187,857,778,998,752,671,17000,-2772,1224,-1032,-21,-78
190,862,779,991,766,670,17048,-2864,1300,-1033,-10,-83
193,858,778,991,762,671,17052,-2760,1296,-1082,10,-70
196,857,782,990,752,669,17024,-2752,1168,-1088,47,-52
199,859,779,989,752,661,17072,-2716,1308,-1090,48,-61
202,860,782,993,753,662,16904,-2624,1296,-1094,50,-51
205,859,782,987,754,658,16980,-2820,1268,-1071,83,-72
208,864,784,987,756,659,17060,-2636,1276,-1024,90,-49
211,862,784,992,754,657,17080,-2680,1224,-1026,142,-57
214,859,784,990,758,658,16996,-2652,1156,-1006,129,-69
217,859,784,992,769,656,17036,-2640,1204,-1003,178,-63
220,855,785,982,762,654,17136,-2764,1196,-991,170,-71
223,860,789,987,767,649,17068,-2680,1292,-988,184,-61
226,862,787,993,774,655,17064,-2648,1264,-1011,174,-62
229,867,791,991,777,651,17068,-2772,1268,-1024,167,-79
232,867,794,985,778,655,16984,-2768,1008,-1021,223,-84
235,865,791,992,782,641,17176,-2764,1136,-1028,201,-95
238,867,791,989,782,647,17076,-2900,1064,-1093,197,-120
241,859,791,992,782,650,17140,-2820,1064,-1117,158,-115
244,857,797,990,777,638,17044,-2792,1212,-1210,84,-157
247,855,794,983,778,641,17020,-2808,1308,-1180,41,-177
250,859,791,998,771,644,16956,-2968,1140,-1140,-69,-172
253,858,794,1002,775,640,17008,-2920,1152,-1045,-22,-206
256,860,787,994,767,639,16976,-2824,1124,-962,-113,-237
259,859,788,990,770,640,16876,-3032,1232,-855,-66,-236
262,856,787,1008,768,639,16756,-2868,1184,-866,-80,-207
265,855,784,994,762,640,16876,-2832,1236,-910,-70,-227
268,854,781,994,753,638,17040,-2840,1112,-836,9,-189
271,859,782,995,752,639,17076,-2816,1076,-925,16,-214
274,857,784,993,755,639,17080,-2884,1152,-876,234,-157
277,858,784,992,747,640,17028,-2936,1096,-943,263,-167
280,858,781,995,752,640,17036,-2872,1020,-929,48,-157
283,864,779,991,752,631,16964,-2764,1148,-1052,87,-249
286,861,778,994,754,638,16972,-2820,1156,-1012,-80,-192
289,863,780,989,755,635,16960,-2872,1184,-1057,-21,-238
292,865,783,989,755,633,16892,-3088,1096,-963,-24,-176
295,864,786,992,761,637,17052,-2944,1056,-1029,25,-206
298,869,789,991,762,633,17008,-2900,1208,-1000,185,-214
301,864,784,990,759,633,16788,-2940,1164,-953,135,-167
304,861,784,993,759,628,16792,-2848,1116,-940,-96,-169
307,865,786,989,755,631,17076,-2972,1192,-783,106,-73
310,865,783,992,758,633,16996,-2924,1208,-787,287,-97
313,863,782,990,767,635,16980,-3052,1168,-720,332,-11
316,865,784,995,766,631,16916,-3036,1324,-655,423,-10
319,861,789,996,770,631,17004,-2964,1212,-745,351,-54
322,859,793,998,766,634,17108,-3076,1164,-795,153,-122
325,858,789,994,768,633,16968,-2900,1088,-869,38,-92
328,854,786,992,764,629,17064,-3056,1240,-689,122,-114
331,860,790,997,770,632,17048,-2972,1048,-705,153,-156
334,865,790,993,771,631,17036,-2980,1212,-706,140,-173
337,859,791,993,769,629,17008,-3048,1032,-599,141,-174
340,857,789,993,771,627,17060,-3016,1008,-626,192,-213
343,853,795,994,769,631,17132,-3044,1120,-703,104,-261
346,857,793,989,768,629,17048,-2996,1184,-621,191,-245
349,857,789,986,770,628,16924,-2940,1212,-685,85,-296
352,858,787,990,779,625,16844,-3052,1268,-645,159,-244
355,863,789,988,771,633,16944,-3052,1260,-571,266,-232
358,859,785,987,771,626,17076,-2988,1136,-544,289,-286
361,862,784,989,769,629,16964,-2980,1044,-498,344,-240
364,861,797,985,766,625,17012,-3012,1204,-511,432,-300
367,868,785,987,767,629,16904,-3116,1236,-496,438,-319
370,864,784,984,769,624,16912,-3036,1088,-465,342,-333
373,867,784,987,769,630,16736,-2920,992,-430,291,-334
376,848,785,987,765,625,16888,-2992,1220,-389,172,-347
379,864,783,988,766,629,16828,-2960,1056,-374,101,-354
382,862,784,987,758,628,16944,-2984,1108,-333,20,-381
385,864,789,989,761,625,16972,-2900,984,-367,-144,-399
388,862,790,983,765,627,16856,-2948,1012,-355,-278,-439
391,863,787,989,758,628,16896,-2920,1012,-370,-261,-455
394,861,789,987,756,626,16972,-3020,1044,-418,-279,-504
397,862,791,987,759,623,16940,-2876,944,-436,-397,-513
400,861,789,992,757,625,16984,-2908,1096,-425,-303,-536
403,863,786,987,754,627,16944,-2808,1048,-401,-201,-549
406,861,785,986,750,636,17060,-2860,1380,-421,-311,-514
409,854,787,987,752,631,17052,-2848,1224,-379,-526,-470
412,862,789,992,754,627,17072,-2836,1396,-394,-176,-507
415,847,787,990,752,625,17200,-2860,1072,-296,-123,-482
418,854,786,991,755,624,17092,-2844,1408,-266,-77,-449
421,854,785,992,754,631,17052,-2620,1156,-338,-119,-452
424,854,784,991,761,631,17044,-2736,1132,-336,-64,-394
427,858,784,991,759,629,17028,-2712,1100,-328,-12,-365
430,857,783,994,767,635,17152,-2696,1224,-288,189,-305
433,858,776,992,768,631,17144,-2732,1396,-301,341,-380
436,861,789,993,773,631,17036,-2664,1072,-323,161,-387
439,858,773,995,772,630,17020,-2688,1156,-321,0,-369
442,857,775,993,772,627,16996,-2680,1128,-271,101,-359
445,853,778,990,774,634,17140,-2656,1212,-263,258,-332
448,859,777,991,769,630,17108,-2688,1068,-283,324,-366
451,862,778,989,772,628,17040,-2744,1140,-309,233,-341
454,859,779,987,767,637,17024,-2732,1044,-362,220,-330
457,864,779,991,765,631,16984,-2712,1112,-411,277,-345
460,862,779,990,762,629,17124,-2752,1028,-391,317,-338
463,859,778,989,765,624,16960,-2824,1012,-407,300,-338
466,864,786,987,764,630,16932,-2800,1060,-452,298,-378
469,865,782,997,767,635,16996,-2804,1268,-491,297,-368
472,863,784,989,761,635,16892,-2868,1112,-523,350,-382
475,864,782,989,767,635,17012,-2784,1076,-581,421,-391
478,864,784,997,767,634,16904,-2856,1072,-526,314,-393
481,863,784,990,766,633,16940,-2800,1028,-607,279,-378
484,865,792,991,768,635,17008,-2780,1076,-621,205,-400
487,862,786,991,767,630,16888,-2764,1020,-635,188,-403
490,864,784,991,768,630,17112,-2836,1096,-666,196,-415
493,864,784,993,768,631,16980,-2772,1004,-714,132,-395
496,880,785,990,768,631,16964,-2804,1064,-629,175,-297
499,862,781,991,766,636,16960,-2828,1208,-768,206,-333
502,862,784,992,767,633,16996,-2732,1028,-778,236,-310
505,864,779,987,767,633,16988,-2756,1064,-743,172,-365
508,861,779,989,763,633,16800,-2848,1104,-789,76,-335
511,863,774,987,759,629,16876,-2800,1188,-810,69,-339
514,861,775,990,757,634,16808,-2912,1236,-730,115,-261
517,861,759,997,752,638,16848,-2840,1232,-770,128,-297
520,862,769,993,753,635,16816,-2888,1156,-692,175,-236
523,863,768,994,749,635,16668,-2868,1300,-687,71,-238
526,861,762,998,748,636,16664,-2772,1012,-635,5,-226
529,862,763,995,749,634,16628,-2788,1180,-651,90,-207
532,860,768,998,743,631,16748,-2776,1004,-595,143,-175
535,858,757,1003,741,637,16764,-2744,1200,-669,84,-169
538,864,757,999,738,631,16712,-2788,1096,-721,29,-152
541,867,758,1003,734,634,16808,-2880,1260,-738,4,-109
544,867,759,1005,736,633,16772,-2760,1088,-748,-44,-102
547,864,758,1005,731,634,16868,-2736,1176,-724,-27,-73
550,862,751,1007,738,630,16816,-2756,1264,-723,-40,-57
553,865,749,1008,738,637,16864,-2652,1128,-728,-63,-56
556,860,742,1006,737,634,16864,-2752,1044,-719,-69,-42
559,860,739,1007,737,637,16852,-2640,1144,-752,-70,6
562,857,737,1007,743,635,17092,-2700,1160,-776,-90,22
565,848,738,1008,740,634,16888,-2640,1276,-799,-127,16
568,837,739,1012,739,634,16876,-2644,1288,-827,-112,35
571,848,735,1015,741,631,17012,-2752,1236,-874,-174,45
574,846,751,1013,743,634,16980,-2696,1128,-900,-163,56
577,845,739,1011,742,637,16992,-2680,1272,-928,-164,43
580,848,739,1017,745,635,17012,-2532,1208,-918,-183,53
583,848,734,1018,747,633,17052,-2604,1160,-886,-173,64
586,847,729,1011,746,635,16920,-2544,1124,-860,-165,52
589,851,731,1030,747,638,16928,-2460,1056,-850,-146,53
592,848,737,1021,747,638,17000,-2692,1084,-873,-137,39
595,849,738,1017,750,639,16952,-2472,1264,-865,-127,53
598,849,741,1019,751,638,16996,-2460,1236,-829,-163,25
601,850,746,1014,752,634,17120,-2512,1200,-856,-131,11
604,849,751,1011,752,637,17208,-2468,1192,-856,-177,-23
607,855,753,1011,763,638,17044,-2476,1208,-833,-180,-23
610,859,754,1008,754,638,17028,-2416,1224,-866,-247,-41
613,861,760,1008,754,637,17068,-2404,1492,-938,-198,-34
616,865,766,1007,750,638,17268,-2372,1404,-959,-222,-70
619,867,768,1019,751,635,17044,-2424,1480,-985,-167,-71
622,867,783,1002,760,640,17256,-2388,1692,-962,-182,-100
625,864,781,1005,754,635,17240,-2284,1668,-1004,-160,-85
628,864,781,1001,758,635,17236,-2336,1572,-974,-153,-82
631,865,784,997,758,635,17332,-2232,1704,-1067,-106,-95
634,861,783,997,763,639,17276,-2248,1560,-1031,-70,-148
637,860,785,997,762,634,17264,-2320,1608,-1119,-76,-139
640,863,785,994,760,640,17324,-2336,1564,-1138,-94,-171
643,864,800,998,778,637,17240,-2276,1720,-1123,-110,-179
646,863,784,996,769,639,17144,-2256,1588,-1219,-164,-246
649,861,784,1001,784,638,17124,-2444,1796,-1072,-29,-203
652,860,784,994,778,636,17296,-2264,1672,-1129,-145,-246
655,859,781,995,775,639,17336,-2192,1784,-1137,-40,-221
658,855,782,997,773,643,17256,-2456,1840,-1044,7,-233
661,855,782,996,772,639,17140,-2272,1688,-1119,-121,-286
664,855,782,995,773,639,17044,-2336,1668,-1107,34,-268
667,858,779,995,770,638,17208,-2416,1656,-1122,188,-264
670,858,780,998,772,640,17232,-2400,1372,-1155,216,-322
673,859,769,998,775,638,17128,-2496,1360,-1076,275,-285
676,859,784,994,779,639,17020,-2380,1564,-1107,114,-316
679,858,783,995,780,641,17016,-2384,1532,-1104,147,-332
682,861,784,995,779,638,17156,-2464,1608,-1050,164,-315
685,858,784,992,781,643,17140,-2336,1524,-1061,220,-285
688,865,784,994,775,640,17244,-2356,1420,-1128,249,-321
691,859,784,993,775,639,17148,-2416,1344,-1181,226,-324
694,860,789,994,771,641,17088,-2284,1452,-1248,233,-350
697,855,789,991,768,640,17140,-2348,1480,-1324,236,-376
700,863,791,997,774,640,17100,-2368,1564,-1310,283,-365
703,862,793,994,775,641,17112,-2376,1640,-1349,218,-378
706,862,796,992,773,641,17052,-2232,1540,-1367,172,-402
709,862,794,989,775,646,16880,-2352,1572,-1353,188,-402
712,866,790,991,773,643,17000,-2208,1580,-1366,166,-371
715,862,786,990,779,641,16996,-2200,1632,-1444,188,-386
718,867,789,994,777,646,17060,-2272,1560,-1481,165,-347
721,862,788,992,781,642,16964,-2120,1568,-1546,119,-387
724,864,784,990,779,643,17000,-2232,1536,-1566,106,-376
727,878,787,990,784,645,17016,-2316,1556,-1646,107,-403
730,865,786,993,783,639,16844,-2312,1612,-1585,113,-356
733,863,791,992,778,643,17004,-2268,1604,-1693,74,-369
736,862,789,995,784,643,17084,-2324,1484,-1719,121,-335
739,865,787,991,779,640,16940,-2356,1456,-1672,-22,-368
742,859,793,995,784,643,16976,-2424,1564,-1683,-57,-338
745,858,786,991,782,640,16992,-2352,1560,-1701,-89,-326
748,873,784,995,784,647,17044,-2492,1692,-1725,46,-314
751,858,785,998,784,646,16948,-2492,1584,-1741,145,-330
754,859,784,1001,784,645,17028,-2564,1584,-1731,130,-309
757,855,785,999,784,645,17012,-2532,1600,-1754,155,-321
760,853,787,997,784,642,16920,-2492,1348,-1793,16,-290
763,855,793,999,784,646,17040,-2472,1428,-1827,82,-305
766,861,787,998,785,647,17004,-2512,1420,-1872,42,-314
769,861,784,997,784,645,16968,-2580,1432,-1902,86,-308
772,861,784,995,782,651,17012,-2500,1336,-1945,63,-340
775,861,786,999,782,646,17004,-2552,1336,-1927,28,-350
778,863,788,999,779,644,17024,-2568,1344,-1932,38,-333
781,864,788,999,779,650,16880,-2504,1416,-1913,29,-364
784,865,789,998,773,646,16920,-2552,1584,-1908,117,-329
787,863,788,1000,776,648,16884,-2508,1504,-1885,80,-321
790,862,793,997,775,645,17056,-2584,1284,-1878,64,-361
793,862,795,1002,781,646,16808,-2528,1424,-1876,-29,-338
796,866,791,992,779,655,16968,-2652,1504,-1861,2,-324
799,862,795,991,771,655,17104,-2528,1556,-1899,-18,-310
802,860,800,993,773,647,17096,-2468,1664,-1881,1,-290
805,858,795,997,775,649,17020,-2500,1532,-1817,-2,-278
808,855,799,998,779,645,17108,-2584,1580,-1786,65,-274
811,855,795,995,781,652,17044,-2580,1716,-1742,84,-274
814,859,784,999,783,652,16972,-2580,1584,-1690,90,-272
817,853,790,997,784,653,17188,-2552,1360,-1656,-57,-173
820,854,795,1003,784,651,17208,-2588,1788,-1601,319,-188
823,851,797,998,784,651,17196,-2416,1472,-1620,369,-283
826,853,798,999,783,653,17048,-2612,1364,-1614,151,-276
829,851,789,996,784,653,17136,-2680,1268,-1633,150,-324
832,859,797,991,784,652,17168,-2660,1436,-1629,182,-322
835,859,791,1019,785,653,17192,-2700,1280,-1632,118,-347
838,851,791,994,784,653,17040,-2836,1252,-1693,76,-362
841,853,789,997,786,650,16996,-2864,1324,-1639,160,-334
844,857,789,995,787,655,16888,-2768,1224,-1665,66,-352
847,859,810,997,784,654,16852,-2768,1300,-1669,65,-355
850,863,786,995,787,649,16944,-2888,1156,-1659,27,-380
853,864,791,993,787,651,17052,-2976,1024,-1621,-22,-380
856,859,790,994,790,651,16944,-2852,1172,-1631,3,-401
859,862,794,995,794,651,16852,-2852,1112,-1597,4,-389
862,863,789,995,798,651,17052,-2892,1248,-1593,1,-389
865,862,788,997,803,651,16956,-2932,1380,-1555,-4,-378
868,863,799,993,804,653,17072,-2880,1120,-1498,-18,-367
871,861,800,993,803,647,17092,-2916,1056,-1385,-33,-326
874,863,799,991,802,655,17124,-2928,1028,-1273,106,-332
877,865,801,993,801,656,17220,-2820,1188,-1235,73,-337
880,864,800,995,799,650,17200,-2792,1060,-1215,-61,-344
883,865,800,995,801,652,17184,-2764,1148,-1231,-43,-367
886,867,801,994,799,656,17104,-2896,1240,-1159,-118,-374
889,865,801,994,799,655,17176,-3024,1100,-1003,-142,-379
892,863,799,991,796,654,17072,-3052,1096,-995,-171,-367
895,861,798,995,797,653,17164,-2844,1116,-1100,-111,-400
898,859,795,995,799,656,17044,-3028,1104,-1028,-175,-406
901,857,793,995,800,651,16988,-3016,968,-986,-241,-366
904,858,791,994,800,650,16948,-3016,1112,-969,-316,-353
907,858,791,995,796,656,17068,-3028,1224,-934,-251,-375
910,853,788,1001,800,653,17016,-2920,1224,-879,-175,-382
913,855,796,992,795,655,16980,-2964,1160,-784,-161,-361
916,854,788,996,794,654,16988,-2988,1280,-679,-93,-366
919,855,785,1002,795,651,16920,-2976,1292,-673,-64,-397
922,861,785,998,790,655,16812,-3044,1240,-533,-100,-389
925,859,784,993,790,651,16832,-2972,1176,-479,-178,-375
928,859,775,1003,790,651,16860,-3080,1236,-382,-116,-387
931,861,773,998,785,649,16956,-2832,1016,-340,-137,-426
934,859,770,1002,789,656,16948,-2936,1144,-292,-198,-451
937,861,771,993,788,656,17072,-3060,1168,-191,-161,-429
940,867,779,998,785,653,17036,-3016,1004,-157,-168,-437
943,867,779,995,788,654,16940,-3016,1136,-59,-157,-409
946,869,780,998,787,656,17060,-2992,1068,-25,-103,-455
949,868,775,995,786,656,17260,-2976,1028,22,-112,-431
952,855,780,994,788,656,17080,-3048,1020,5,-36,-444
955,863,781,994,793,654,17216,-3088,1236,-30,39,-528
958,867,781,995,790,656,17104,-3032,1136,-32,-82,-540
961,861,783,995,789,655,16936,-3120,908,36,19,-509
964,858,782,997,789,656,16988,-3060,1100,209,234,-439
967,848,783,993,787,656,17024,-2896,840,185,258,-477
970,858,782,992,789,655,16952,-2940,1056,247,205,-483
973,857,800,997,787,655,16844,-3012,1200,300,-7,-479
976,858,783,990,784,656,17088,-2876,1044,236,-5,-536
979,854,786,999,783,656,17308,-2796,1072,203,-128,-600
982,854,786,996,780,656,17008,-2876,1016,376,-175,-594
985,861,785,997,783,656,16956,-2964,952,530,-22,-590
988,855,792,994,777,657,17160,-2688,1156,382,-51,-673
991,857,785,993,771,655,17064,-2956,1116,555,22,-671
994,863,790,991,772,654,16932,-2732,1168,496,-145,-739
997,863,784,994,778,658,16888,-2824,1020,511,-297,-756
1000,857,780,993,773,656,17112,-2804,1500,599,-42,-772
1003,862,786,996,773,654,16972,-2888,1176,671,-64,-764
1006,862,782,997,778,657,17140,-2812,960,713,-100,-817
1009,865,777,994,767,656,16728,-2712,1052,740,-347,-806
1012,869,772,993,769,658,17080,-2652,1248,808,-425,-834
1015,865,775,996,770,659,16796,-2648,1216,1008,-440,-807
1018,863,782,991,767,655,16952,-2724,1340,1068,-177,-811
1021,863,772,986,769,656,17172,-2672,1284,1160,-127,-802
1024,861,768,987,769,656,17052,-2756,1272,1181,-120,-830
1027,863,768,991,769,658,17084,-2740,1288,1320,-124,-849
1030,864,771,989,770,659,17200,-2652,1240,1262,-138,-863
1033,861,771,989,767,659,17096,-2764,1336,1314,-103,-935
1036,863,766,1003,768,661,17152,-2536,1416,1418,-88,-913
1039,864,769,983,767,658,17052,-2504,1536,1431,-28,-898
1042,865,767,984,767,657,17164,-2604,1336,1459,-20,-916
1045,864,773,985,768,666,17044,-2556,1512,1554,26,-942
1048,863,771,981,767,657,17060,-2488,1200,1541,-75,-915
1051,863,768,983,768,658,17092,-2552,1192,1483,-82,-947
1054,861,769,982,769,659,16988,-2556,1436,1534,-143,-964
1057,866,771,979,755,658,17136,-2668,1228,1524,-18,-937
1060,871,770,985,768,661,17104,-2488,1504,1454,8,-1020
1063,863,765,986,767,659,17056,-2552,1444,1504,43,-1018
1066,866,779,983,764,659,17040,-2552,1536,1448,-38,-1000
1069,863,773,983,761,659,16916,-2620,1572,1469,-39,-962
1072,862,769,983,759,656,17100,-2648,1428,1504,-139,-990
1075,861,771,982,763,659,17252,-2376,1448,1398,-46,-994
1078,865,770,993,763,659,17024,-2524,1440,1646,-145,-925
1081,862,773,988,763,657,16844,-2468,1556,1636,-138,-955
1084,862,768,991,757,662,17000,-2140,1392,1564,-155,-909
1087,861,769,987,762,659,16984,-2356,1216,1713,-315,-866
1090,860,773,991,761,656,17248,-2132,1372,1643,-314,-916
1093,862,771,988,759,659,17060,-2144,1244,1645,-288,-901
1096,864,768,987,762,658,17160,-2096,1376,1655,-328,-882
1099,858,770,989,755,659,16860,-2192,1628,1674,-246,-874
1102,855,768,987,761,656,17104,-1868,1432,1546,-226,-921
1105,856,768,991,765,662,17016,-2036,1384,1634,-239,-840
1108,857,771,991,767,665,17004,-1872,1672,1572,-197,-845
1111,854,773,990,768,657,17008,-1912,1472,1609,-264,-822
1114,858,774,989,770,661,17044,-1844,1416,1536,-233,-811
1117,855,773,991,769,661,16976,-1916,1548,1537,-229,-762
1120,855,768,995,783,660,17116,-1652,1428,1482,-239,-773
1123,855,765,991,782,660,17048,-1724,1580,1399,-239,-761
1126,853,771,986,779,663,17104,-1688,1460,1315,-238,-696
1129,855,769,993,784,660,17304,-1672,1268,1184,-121,-691
1132,858,772,991,790,660,17260,-1764,1324,1087,-33,-707
1135,863,773,995,789,657,17116,-1724,1328,1002,-128,-679
1138,863,771,991,790,662,17036,-1828,1388,993,-174,-632
1141,861,771,991,787,658,17128,-1736,1264,895,-155,-599
1144,859,770,995,786,657,17176,-1652,1292,803,-208,-587
1147,851,774,995,787,661,17096,-1588,1236,754,-204,-574
1150,856,771,991,784,659,17044,-1640,1556,639,-209,-611
1153,853,778,993,784,659,16800,-1604,1452,551,-316,-615
1156,854,773,992,778,665,16896,-1628,1484,535,-312,-580
1159,854,778,993,779,659,17028,-1572,1560,415,-355,-611
1162,854,775,993,775,662,17008,-1536,1644,383,-403,-575
1165,853,780,996,775,661,17128,-1496,1748,307,-417,-596
1168,855,773,998,777,666,17180,-1436,1600,270,-364,-575
1171,851,771,998,779,663,17104,-1284,1468,266,-316,-563
1174,855,778,999,782,661,17040,-1300,1532,310,-329,-527
1177,851,781,994,784,663,17112,-1312,1476,215,-299,-545
1180,858,778,993,784,663,17060,-1380,1464,217,-310,-531
1183,855,779,989,786,663,17148,-1364,1420,125,-168,-513
1186,859,779,995,785,662,16976,-1468,1392,147,-219,-499
1189,857,781,997,786,659,17096,-1456,1532,45,-265,-506
1192,862,787,995,784,658,17044,-1484,1436,-77,-267,-512
1195,876,783,996,784,662,16932,-1540,1404,-54,-311,-492
1198,863,768,993,788,662,17104,-1472,1368,-187,-237,-462
1201,859,783,992,787,663,17300,-1564,1604,-259,-140,-465
1204,863,793,996,790,663,17220,-1564,1604,-354,-92,-468
1207,857,789,992,782,663,17100,-1540,1540,-487,-72,-437
1210,853,787,993,788,663,17324,-1568,1404,-529,55,-406
1213,861,787,992,787,668,17308,-1680,1400,-567,103,-423
1216,859,786,993,787,668,17256,-1624,1404,-638,7,-423
1219,854,768,998,784,663,17260,-1592,1472,-679,-130,-390
1222,855,769,995,785,665,17212,-1676,1420,-780,-107,-404
1225,863,783,993,790,666,17072,-1768,1472,-878,-176,-453
1228,863,779,993,778,665,17172,-1744,1556,-934,-289,-458
1231,865,774,993,773,668,17180,-1732,1432,-1025,-281,-495
1234,859,784,991,770,662,17220,-1800,1712,-1034,-220,-495
1237,864,789,993,771,667,17232,-1784,1620,-1028,-185,-499
1240,862,789,989,767,668,17032,-1676,1632,-1114,-173,-516
1243,855,789,993,768,668,17036,-1724,1620,-1004,-226,-467
1246,860,784,991,769,670,17112,-1624,1716,-1041,-173,-481
1249,855,784,993,771,669,16956,-1620,1616,-987,-133,-490
1252,855,783,995,769,666,17080,-1648,1580,-950,-132,-458
1255,855,784,993,770,671,17144,-1716,1728,-948,-96,-443
1258,863,783,989,761,667,17084,-1688,1672,-878,-127,-448
1261,859,786,991,768,670,17128,-1852,1588,-807,-254,-425
1264,859,786,989,768,666,17184,-1824,1424,-835,-202,-433
1267,858,786,992,774,669,17008,-1800,1636,-875,-242,-444
1270,854,786,993,772,671,17156,-1748,1548,-899,-291,-460
1273,857,789,992,759,674,17112,-1852,1676,-919,-255,-434
1276,857,790,994,777,673,17200,-1912,1660,-976,-122,-450
1279,861,791,991,781,674,17272,-1944,1364,-995,-2,-414
1282,880,795,993,780,667,17148,-1996,1400,-1070,42,-415
1285,859,802,997,784,673,17252,-1992,1220,-1181,55,-423
1288,859,795,990,785,670,17316,-1960,1104,-1242,45,-460
1291,863,794,983,784,673,17140,-2052,1312,-1228,8,-443
1294,861,791,989,782,674,17072,-2040,1360,-1227,-21,-437
1297,863,811,987,784,667,17176,-2052,1148,-1231,-28,-459
1300,865,791,987,782,673,17152,-2004,1232,-1204,-20,-426
1303,863,793,985,784,674,17128,-2076,1352,-1135,-33,-507
1306,868,797,986,784,673,17028,-2040,1420,-1141,-62,-496
1309,864,795,990,784,674,17120,-2012,1372,-1147,-85,-527
1312,865,800,991,782,669,17064,-1956,1500,-1134,-95,-498
1315,863,798,988,781,675,17068,-2036,1396,-1074,-185,-478
1318,866,796,985,781,672,17212,-1872,1488,-1160,-165,-476
1321,863,795,983,781,675,17072,-1884,1628,-1187,-144,-496
1324,859,795,992,782,678,17012,-1872,1504,-1183,-175,-488
1327,858,797,983,784,675,17160,-1736,1368,-1185,-170,-491
1330,848,790,995,785,671,17168,-1788,1564,-1198,-69,-473
1333,859,797,994,784,675,17060,-1764,1488,-1184,61,-483
1336,859,797,998,784,672,17160,-1924,1396,-1153,63,-460
1339,857,798,993,785,674,17072,-1976,1232,-1176,32,-480
1342,859,796,991,784,672,17096,-2048,1264,-1182,13,-461
1345,858,797,992,784,675,17100,-2016,1368,-1151,-9,-478
1348,859,799,989,783,677,17060,-2096,1372,-1111,14,-457
1351,858,797,988,783,673,17060,-2180,1512,-1103,71,-464
1354,858,795,993,782,678,16956,-2140,1316,-1015,13,-474
1357,859,799,992,779,673,16916,-2144,1268,-864,-100,-433
1360,861,795,995,782,673,16956,-2180,1036,-892,-165,-472
1363,858,790,996,781,675,17060,-2268,1384,-892,-165,-505
1366,862,790,992,784,672,17100,-2240,1380,-898,-216,-523
1369,863,789,996,783,678,17116,-2224,1140,-958,-215,-488
1372,863,788,989,784,679,17216,-2372,1312,-934,-136,-498
1375,863,785,987,784,679,17192,-2392,1200,-934,-95,-487
1378,861,784,997,785,679,17204,-2380,1344,-983,-92,-484
1381,858,784,992,787,677,17168,-2316,1316,-957,-85,-497
1384,858,786,989,785,675,17068,-2292,1224,-897,-154,-500
1387,859,784,993,783,679,17112,-2244,1204,-824,-183,-500
1390,851,787,993,783,676,17100,-2212,1160,-745,-183,-450
1393,854,786,994,778,681,17096,-2248,1232,-653,-30,-500
1396,854,794,995,774,682,16984,-2236,1056,-538,-128,-453
1399,855,795,991,770,677,17076,-2160,1124,-560,-111,-505
1402,851,800,991,769,679,16960,-2144,1092,-461,-276,-479
1405,848,793,991,772,675,16856,-2300,1232,-344,-352,-448
1408,849,791,988,773,675,16936,-2092,1176,-383,-288,-454
1411,849,795,989,774,681,16972,-1964,1216,-415,-309,-442
1414,852,791,990,772,679,16876,-2068,1140,-380,-349,-397
1417,854,790,993,774,679,16940,-2092,1328,-367,-391,-353
1420,852,784,994,787,679,17020,-1980,1120,-344,-240,-369
1423,853,784,991,774,678,17088,-1960,1312,-328,-231,-305
1426,851,777,1011,772,682,16936,-2020,1280,-246,-277,-296
1429,859,771,991,767,677,16936,-2012,1176,-179,-333,-250
1432,853,781,999,768,682,16932,-1952,1216,-173,-343,-254
1435,862,779,998,769,683,17036,-1892,1196,-169,-261,-281
1438,861,779,1001,770,682,17012,-1964,1196,-63,-314,-228
1441,855,779,999,767,684,17072,-1944,1052,-79,-273,-242
1444,854,781,995,766,684,17120,-1996,1004,-39,-289,-256
1447,853,783,1003,769,687,17020,-1888,1052,-43,-237,-209
1450,855,775,999,767,681,17136,-2000,940,-84,-210,-221
1453,854,772,997,770,685,17232,-1996,848,-131,-274,-210
1456,853,777,999,773,687,17008,-2100,844,-196,-314,-182
1459,859,772,998,770,684,17092,-1936,844,-252,-335,-189
1462,852,777,991,768,685,17096,-1992,920,-337,-274,-191
1465,855,779,997,767,686,17188,-1928,892,-367,-246,-190
1468,855,782,997,768,687,16884,-1868,1124,-413,-314,-141
1471,854,779,995,767,688,17008,-1868,1144,-426,-351,-157
1474,863,784,995,763,688,17052,-1780,1020,-412,-331,-119
1477,854,784,999,763,687,17096,-1812,1240,-421,-331,-79
1480,851,783,993,759,684,16928,-1776,1204,-438,-390,-85
1483,854,802,994,759,687,16948,-1760,1224,-438,-355,-92
1486,848,786,1002,763,687,17072,-1664,1180,-462,-426,-84
1489,851,783,999,762,686,17040,-1688,1268,-439,-365,-56
1492,849,784,993,763,688,17040,-1804,1344,-329,-440,-14
1495,850,784,996,762,688,17132,-1600,1160,-402,-473,13
1498,851,783,1003,762,688,17152,-1460,1324,-499,-450,-35
1501,851,784,1001,762,687,17132,-1420,1184,-429,-603,-8
1504,854,779,1001,765,688,17176,-1352,1184,-466,-468,6
1507,851,774,999,768,688,17224,-1376,1088,-479,-354,9
1510,859,770,1019,763,688,17212,-1416,1336,-520,-251,3
1513,858,772,1002,765,686,17136,-1424,1024,-526,-218,8
1516,854,778,1003,766,690,17196,-1424,1032,-625,-229,-21
1519,853,779,999,765,689,17104,-1448,1044,-705,-229,-34
1522,854,773,1003,763,688,17056,-1568,1300,-662,-320,-29
1525,861,772,999,759,688,17172,-1508,988,-661,-387,-38
1528,859,773,996,761,688,17296,-1556,1400,-720,-259,-62
1531,859,768,995,759,689,17384,-1512,1164,-809,-183,-51
1534,859,768,999,759,688,17208,-1524,1348,-711,-189,-84
1537,859,768,997,761,689,17220,-1452,1148,-841,-159,-91
1540,850,768,996,762,688,17168,-1472,1192,-789,-138,-119
1543,854,774,994,767,686,17144,-1600,1008,-762,-210,-124
1546,854,774,987,754,688,17196,-1512,1284,-777,-240,-161
1549,848,784,995,756,688,17252,-1564,1428,-790,-202,-181
1552,851,778,996,754,688,17308,-1464,1368,-793,-268,-199
1555,855,778,992,754,688,17140,-1576,1440,-819,-375,-197
1558,853,786,994,752,688,17184,-1468,1516,-912,-331,-235
1561,855,790,991,752,689,17104,-1540,1480,-829,-393,-246
1564,869,787,994,752,690,17036,-1336,1324,-864,-414,-262
1567,857,794,989,752,687,17028,-1428,1336,-774,-375,-254
1570,863,794,1008,752,687,17236,-1340,1472,-823,-170,-251
1573,863,798,989,758,687,17192,-1408,1496,-788,-147,-279
1576,864,786,992,753,687,17044,-1408,1332,-736,-231,-262
1579,863,797,987,754,688,16988,-1408,1348,-766,-294,-270
1582,864,796,991,757,688,17036,-1288,1352,-748,-318,-285
1585,861,794,987,754,688,17028,-1392,1276,-749,-305,-294
1588,862,798,987,756,691,17212,-1412,1388,-756,-285,-282
1591,863,793,992,758,688,17148,-1508,1516,-702,-202,-252
1594,862,793,988,757,688,17144,-1476,1620,-706,-135,-295
1597,862,787,985,763,687,17228,-1560,1584,-640,-142,-272
1600,861,787,992,766,687,17092,-1540,1540,-632,-123,-285
1603,874,785,992,763,688,17288,-1584,1456,-642,-133,-290
1606,864,785,982,767,687,17260,-1576,1444,-680,-145,-298
1609,851,784,983,765,688,17332,-1484,1596,-727,-101,-284
1612,855,785,981,768,689,17404,-1500,1404,-813,-101,-281
1615,855,780,986,767,686,17372,-1544,1328,-813,-87,-310
1618,863,784,983,764,688,17368,-1520,1428,-889,-63,-314
1621,857,785,982,765,687,17340,-1552,1484,-863,-85,-298
1624,857,789,979,763,687,17444,-1480,1284,-858,-48,-308
1627,853,786,980,758,688,17412,-1484,1440,-864,-44,-318
1630,865,786,980,763,687,17452,-1496,1168,-855,50,-341
1633,854,786,976,755,688,17336,-1520,1456,-856,72,-364
1636,853,790,977,757,688,17312,-1464,1316,-868,78,-363
1639,859,791,979,753,688,17260,-1496,1348,-883,83,-380
1642,880,793,979,752,689,17260,-1456,1336,-896,169,-411
1645,859,794,980,752,685,17372,-1492,1364,-905,147,-399
1648,857,794,977,755,683,17276,-1424,1124,-955,164,-417
1651,861,798,983,758,688,17244,-1328,1280,-1025,190,-413
1654,862,797,983,762,688,17316,-1428,1088,-1116,257,-415
1657,864,800,985,765,689,17244,-1360,1160,-1194,282,-395
1660,864,799,976,765,688,17268,-1416,988,-1258,293,-379
1663,863,801,985,762,688,17196,-1444,1176,-1295,333,-391
1666,863,807,979,764,693,17216,-1444,1284,-1350,347,-417
1669,859,805,977,770,690,17172,-1496,1280,-1393,409,-380
1672,851,809,986,768,690,17232,-1496,1284,-1448,341,-442
1675,855,803,982,767,688,17140,-1500,1296,-1446,339,-428
1678,860,802,982,767,688,17108,-1504,1348,-1473,375,-434
1681,859,801,983,767,689,17224,-1516,1296,-1491,413,-427
1684,863,802,985,768,690,17136,-1548,1336,-1532,386,-423
1687,853,805,982,771,693,17220,-1532,1340,-1522,356,-420
1690,862,795,985,777,691,17180,-1492,1396,-1539,369,-420
1693,859,802,987,774,688,17004,-1576,1400,-1533,394,-398
1696,866,809,988,764,691,17096,-1612,1316,-1535,360,-388
1699,855,800,991,770,693,17000,-1644,1260,-1519,341,-396
1702,851,798,991,770,693,17040,-1696,1256,-1464,319,-396
1705,855,795,989,767,689,17140,-1640,1256,-1441,295,-346
1708,858,795,991,765,689,17036,-1796,1248,-1397,245,-364
1711,863,802,995,763,691,16992,-1736,1144,-1290,239,-340
1714,861,798,989,767,694,16956,-1892,1144,-1270,233,-345
1717,859,795,989,762,694,16948,-1864,1148,-1243,235,-312
1720,859,794,991,764,689,16964,-1840,1012,-1247,164,-288
1723,861,794,987,752,692,17040,-1868,1276,-1266,155,-257
1726,859,784,991,762,691,16988,-1904,1136,-1252,152,-229
1729,863,794,992,765,691,16984,-2016,1200,-1235,148,-232
1732,861,794,991,763,689,17104,-1956,1112,-1245,126,-185
1735,863,790,991,763,693,17128,-1956,988,-1204,124,-168
1738,854,800,994,765,690,16840,-1900,1080,-1202,57,-161
1741,861,790,989,763,690,16996,-2044,1004,-1158,26,-144
1744,862,789,993,766,689,16992,-1988,1028,-1154,-8,-118
1747,863,789,993,768,698,16984,-2016,1076,-1105,-36,-109
1750,860,786,992,763,693,17008,-2008,1076,-1074,-17,-96
1753,862,784,991,757,689,17028,-2036,968,-996,-54,-93
1756,855,784,993,767,688,16972,-2064,1224,-989,-67,-69
1759,852,785,997,768,691,17084,-1912,1188,-959,-122,-55
1762,849,784,994,765,689,17088,-1988,1312,-896,-134,-61
1765,852,784,997,761,691,17064,-1948,1296,-861,-147,-22
1768,848,789,1003,765,688,17136,-1888,1352,-827,-178,-32
1771,859,790,998,763,688,17100,-1844,1184,-779,-176,-10
1774,853,787,1003,755,689,17132,-1824,1184,-732,-228,-17
1777,849,790,989,758,694,17040,-1796,1212,-732,-234,16
1780,852,784,997,762,690,17040,-1732,1184,-700,-230,15
1783,847,784,1003,757,692,17124,-1824,1180,-664,-235,53
1786,850,775,999,762,688,17052,-1884,1036,-635,-236,56
1789,850,774,995,759,691,17076,-1816,1256,-575,-250,82
1792,854,784,994,758,691,17000,-1864,1264,-546,-212,87
1795,853,778,994,760,690,17116,-1804,1048,-500,-227,48
1798,847,765,992,759,690,16980,-1852,992,-465,-247,71
1801,858,780,993,763,689,17016,-1844,924,-413,-233,81
1804,853,778,993,758,691,17120,-1844,1096,-409,-230,64
1807,852,778,992,758,693,17036,-1792,912,-413,-241,59
1810,860,777,991,754,689,17096,-1900,936,-443,-235,91
1813,860,775,995,754,689,17040,-1884,1084,-436,-261,61
1816,855,774,995,755,689,17196,-1796,1032,-449,-242,63
1819,858,781,996,759,689,17164,-1708,1112,-467,-224,48
1822,854,783,994,763,695,17140,-1784,1104,-458,-219,38
1825,854,784,996,758,694,17236,-1700,1076,-484,-195,61
1828,855,783,999,758,695,17200,-1716,1172,-467,-190,23
1831,853,779,993,752,690,17104,-1552,1176,-486,-139,42
1834,849,785,993,752,693,17116,-1720,1204,-469,-199,48
1837,855,781,989,750,695,17280,-1584,1292,-495,-208,5
1840,880,784,992,752,693,17220,-1444,1252,-496,-151,3
1843,855,784,987,753,695,17188,-1616,1308,-497,-104,6
1846,857,784,993,752,694,17180,-1520,1172,-530,-126,15
1849,857,784,991,753,694,17196,-1404,1220,-535,-118,15
1852,854,784,990,752,695,17188,-1416,1224,-545,-98,-4
1855,855,781,992,751,696,17168,-1388,1360,-538,-95,-12
1858,861,777,992,751,690,17164,-1384,1276,-541,-92,25
1861,858,778,992,750,694,17272,-1464,1184,-509,-65,-16
1864,863,779,994,749,689,17192,-1532,1188,-511,-72,2
1867,864,779,990,750,695,17280,-1500,1160,-546,-86,-19
1870,863,780,988,749,694,17132,-1568,1168,-526,-73,3
1873,856,780,990,750,693,17212,-1612,1316,-544,-64,-51
1876,861,785,987,745,697,17224,-1572,1264,-573,-113,-57
1879,862,781,989,747,697,17240,-1484,1320,-579,-85,-71
1882,860,780,992,749,693,17168,-1640,1232,-597,-95,-89
1885,861,782,987,751,694,17232,-1600,1212,-642,-92,-88
1888,859,778,988,751,694,17228,-1700,1392,-667,-104,-112
1891,865,777,987,750,691,17228,-1608,1288,-676,-118,-162
1894,863,777,987,746,695,17136,-1636,1244,-707,-126,-148
1897,863,775,989,749,691,17192,-1636,1284,-714,-134,-184
1900,862,775,982,745,695,17244,-1608,1336,-709,-111,-183
1903,860,780,979,745,693,17276,-1504,1380,-714,-77,-177
1906,861,784,983,743,693,17220,-1652,1280,-695,-62,-197
1909,861,784,982,744,694,17180,-1612,1372,-715,-35,-228
1912,861,786,981,747,690,17296,-1572,1348,-736,-16,-205
1915,861,785,978,742,701,17200,-1560,1308,-802,-1,-183
1918,863,786,979,741,695,17104,-1524,1360,-823,-5,-207
1921,862,793,976,746,694,17096,-1524,1372,-862,-35,-216
1924,863,791,978,738,697,17188,-1496,1528,-862,-28,-221
1927,864,793,982,745,691,17052,-1456,1520,-942,-24,-225
1930,863,794,981,739,699,17200,-1524,1528,-904,-7,-200
1933,863,799,978,740,693,17288,-1560,1440,-911,4,-211
1936,858,798,976,740,695,17244,-1488,1576,-942,11,-203
1939,858,801,979,740,696,17208,-1456,1524,-944,70,-182
1942,866,797,979,741,694,17252,-1536,1384,-981,108,-202
1945,861,806,979,738,698,17240,-1500,1468,-948,111,-195
1948,859,807,983,745,695,17196,-1648,1520,-948,84,-202
1951,854,826,981,742,693,17136,-1520,1352,-907,122,-213
1954,861,803,985,746,691,17104,-1496,1412,-902,119,-202
1957,858,803,987,755,697,17124,-1488,1248,-904,113,-198
1960,853,801,984,752,693,17112,-1384,1520,-903,94,-188
1963,858,800,985,741,695,17060,-1476,1384,-894,137,-175
1966,863,803,985,752,691,17048,-1452,1464,-900,156,-199
1969,856,800,980,746,700,17000,-1496,1420,-955,162,-163
1972,859,798,983,749,691,17176,-1424,1492,-988,182,-160
1975,857,800,989,751,690,17160,-1524,1360,-1019,185,-155
1978,865,797,987,752,695,17092,-1372,1504,-1039,162,-151
1981,859,797,983,752,691,17072,-1524,1364,-1059,153,-139
1984,857,794,985,751,693,17196,-1472,1360,-1043,124,-144
1987,860,796,989,752,695,17056,-1368,1440,-1075,105,-163
1990,855,797,985,755,695,17048,-1476,1440,-1085,77,-149
1993,855,797,985,757,698,16980,-1552,1292,-1111,69,-143
1996,854,797,982,755,693,17092,-1316,1480,-1131,69,-146
1999,859,800,977,758,688,17092,-1424,1336,-1163,58,-109
2002,880,794,987,753,691,17148,-1492,1364,-1203,57,-135
2005,867,796,986,753,691,17132,-1488,1400,-1229,65,-118
2008,862,795,981,753,694,17104,-1536,1240,-1244,68,-103
2011,862,791,983,764,691,17100,-1480,1144,-1318,56,-94
2014,866,787,982,763,688,17048,-1436,1244,-1359,86,-70
2017,866,790,992,761,694,17116,-1504,1424,-1424,90,-77
2020,865,789,979,762,691,17044,-1580,1332,-1464,87,-60
2023,867,796,983,761,689,17052,-1440,1224,-1539,85,-49
2026,871,791,999,754,690,17028,-1464,1316,-1551,80,-27
2029,869,787,977,748,688,17132,-1512,1344,-1598,67,-9
2032,869,789,983,749,691,16984,-1584,1432,-1636,56,-9
2035,871,791,986,743,689,17180,-1540,1288,-1671,62,-17
2038,883,787,994,738,693,17124,-1580,1156,-1715,89,3
2041,866,787,983,734,692,17228,-1576,1456,-1723,62,49
2044,865,786,983,734,688,17172,-1672,1420,-1764,61,47
2047,866,787,982,730,689,17096,-1624,1408,-1778,100,65
2050,859,787,981,732,691,17244,-1492,1472,-1792,112,76
2053,861,813,989,732,689,17104,-1604,1492,-1760,137,101
2056,857,795,986,738,691,17076,-1528,1264,-1756,197,122
2059,852,797,995,741,693,17036,-1512,1500,-1764,133,161
2062,850,795,988,741,690,17336,-1580,1464,-1769,150,149
2065,849,791,983,741,695,17348,-1624,1232,-1768,189,137
2068,852,793,987,743,695,17276,-1716,1296,-1779,187,122
2071,848,791,991,752,692,17240,-1756,1276,-1771,256,111
2074,860,787,983,750,690,17112,-1808,1368,-1789,280,102
2077,858,784,986,751,693,17068,-1816,1184,-1862,251,65
2080,862,789,982,751,691,17120,-1808,1276,-1885,278,42
2083,863,790,985,752,695,17052,-1856,1312,-1897,229,53
2086,857,787,982,754,692,17080,-1808,1380,-1965,238,21
2089,862,786,983,761,692,17132,-1824,1436,-2000,171,40
2092,864,786,994,756,692,17064,-1944,1180,-2000,213,25
2095,861,784,988,757,695,17072,-1960,1184,-1998,192,38
2098,858,790,983,757,697,17064,-2000,1196,-2014,186,32
2101,861,789,987,755,695,16992,-2040,1060,-1986,149,17
2104,859,791,991,757,692,17056,-2104,1284,-1979,167,21
2107,861,794,992,753,695,17028,-2060,1188,-1963,169,22
2110,851,794,991,755,697,17200,-2120,1300,-1885,144,18
2113,854,797,993,753,693,17092,-2128,1360,-1842,135,6
2116,854,788,995,755,693,17048,-2068,1312,-1766,156,4
2119,848,797,997,761,691,17080,-2064,1444,-1728,118,6
2122,850,791,994,758,693,17096,-2132,1348,-1678,118,-8
2125,849,787,1014,783,694,17096,-2168,1368,-1621,141,-14
2128,848,791,990,762,702,17232,-2152,1360,-1574,142,-14
2131,853,791,989,764,695,17092,-2080,1384,-1501,147,-31
2134,850,799,991,768,698,17172,-2156,1380,-1416,162,-38
2137,851,796,986,767,695,17092,-2032,1308,-1383,167,-47
2140,861,793,985,766,697,17052,-2212,1180,-1296,120,-72
2143,858,794,989,767,694,17108,-2156,1272,-1259,146,-94
2146,858,803,983,764,695,17060,-2144,1188,-1172,71,-74
2149,860,785,990,768,695,17044,-2116,1132,-1099,73,-108
2152,865,791,987,772,693,17072,-2128,980,-1093,50,-103
2155,860,787,989,773,693,17008,-2176,1076,-967,-51,-140
2158,862,791,990,771,695,16808,-2248,1100,-917,-73,-128
2161,862,790,989,784,691,17072,-2228,1228,-888,-125,-115
2164,862,793,983,773,692,16964,-2148,1268,-865,-125,-122
2167,854,794,983,774,690,17112,-2036,1328,-801,-129,-113
2170,853,784,986,772,695,17032,-2096,1120,-778,-152,-108
2173,855,789,986,772,699,17016,-1984,1244,-757,-134,-108
2176,855,790,987,769,695,17068,-2024,1160,-720,-126,-105
2179,858,791,983,775,695,17052,-2000,1292,-697,-154,-113
2182,854,787,986,775,694,16936,-1932,1224,-633,-163,-120
2185,857,797,999,770,695,17040,-2012,1096,-656,-151,-118
2188,854,784,981,771,695,17032,-1956,1084,-603,-158,-131
2191,858,787,987,776,700,17088,-1944,1096,-571,-125,-100
2194,855,796,985,794,695,17028,-1864,1244,-559,-116,-101
2197,853,800,985,781,695,17060,-1844,1264,-531,-130,-99
2200,855,799,985,779,698,17132,-1844,1072,-538,-148,-87
2203,849,800,983,779,697,17168,-1940,1148,-535,-119,-52
2206,857,800,986,780,694,17060,-1904,1260,-561,-123,-60
2209,853,796,991,781,695,17060,-1896,1048,-590,-116,-77
2212,855,794,990,783,692,17048,-1796,1048,-604,-132,-53
2215,857,791,987,778,695,17104,-1760,1168,-595,-134,-48
2218,858,794,987,775,699,17148,-1856,1020,-610,-147,-48
2221,851,790,991,775,699,17140,-1864,944,-617,-194,-62
2224,857,791,985,773,698,17080,-1832,1144,-608,-193,-73
2227,857,789,1015,769,699,17072,-1920,1100,-587,-230,-63
2230,857,791,990,772,698,17068,-1808,1292,-609,-230,-52
2233,862,786,991,768,695,17032,-1768,1084,-628,-273,-54
2236,860,786,990,767,699,17116,-1776,1088,-616,-266,-62
2239,858,793,991,766,695,16900,-1708,1160,-625,-263,-46
2242,858,786,994,762,697,17028,-1788,1204,-643,-297,-54
2245,857,786,993,766,695,17048,-1928,1196,-656,-258,-42
2248,862,779,990,759,695,17092,-1780,1196,-662,-268,-31
2251,858,783,990,762,699,17192,-1748,1164,-639,-259,-41
2254,863,779,989,762,697,17140,-1688,1192,-624,-216,1
2257,861,782,994,762,694,17132,-1804,1228,-593,-222,-23
2260,858,781,995,759,693,17104,-1624,1168,-598,-224,-17
2263,862,780,991,762,692,17056,-1700,1152,-581,-198,-18
2266,857,777,993,767,694,17008,-1696,1064,-581,-204,-3
2269,858,773,988,767,702,17028,-1740,1228,-563,-205,15
2272,867,777,985,766,695,17172,-1684,1140,-581,-229,20
2275,858,773,991,766,694,17088,-1772,1180,-566,-212,29
2278,858,771,990,767,699,17192,-1728,1256,-566,-184,29
2281,855,771,989,768,695,17092,-1856,1356,-583,-174,53
2284,850,773,992,768,700,17132,-1688,1292,-627,-172,63
2287,855,779,993,769,693,17124,-1712,1220,-642,-155,60
2290,852,775,988,773,693,17164,-1728,1128,-674,-118,66
2293,861,775,987,770,702,17220,-1768,1140,-726,-159,75
2296,848,779,990,769,699,17220,-1604,1136,-705,-144,96
2299,848,777,993,777,697,17240,-1608,1204,-738,-125,54
2302,844,777,991,771,692,17156,-1644,1120,-744,-127,98
2305,848,782,995,769,693,17112,-1684,1224,-751,-71,79
2308,849,784,992,770,697,17092,-1680,1180,-785,-86,73
2311,850,784,992,768,701,17128,-1596,1032,-778,-79,96
2314,851,784,990,768,698,17132,-1572,1088,-785,-68,90
2317,855,785,993,770,704,17060,-1676,1100,-789,-90,93
2320,851,789,991,782,695,17232,-1744,984,-814,-88,68
2323,854,790,991,767,694,17200,-1604,952,-807,-85,63
2326,850,789,998,771,701,17184,-1724,1156,-809,-112,72
2329,854,789,995,769,695,17208,-1668,1076,-815,-128,79
2332,850,784,991,765,702,17164,-1696,1256,-800,-142,58
2335,853,785,993,769,698,17132,-1656,1260,-816,-149,71
2338,855,787,987,767,697,17164,-1612,1224,-792,-163,45
2341,851,789,994,771,699,17156,-1508,1296,-753,-158,37
2344,861,785,990,769,697,17144,-1616,1252,-691,-128,11
2347,854,785,997,765,698,17144,-1628,1076,-668,-175,1
2350,870,785,992,768,697,17108,-1592,1200,-669,-178,7
2353,859,783,992,767,694,17012,-1660,1236,-657,-193,0
2356,857,783,995,769,701,17144,-1668,1420,-665,-214,5
2359,854,781,992,768,699,17184,-1628,1484,-690,-212,-20
2362,848,779,991,772,701,17188,-1600,1328,-712,-188,-2
2365,854,771,990,770,703,17132,-1520,1144,-729,-174,-12
2368,862,771,989,776,693,17128,-1596,1348,-771,-172,-31
2371,853,778,990,775,699,17104,-1544,1356,-835,-160,8
2374,857,777,988,777,697,17276,-1596,1488,-846,-152,-16
2377,857,782,979,777,699,17204,-1584,1380,-863,-129,-16
2380,859,784,991,772,703,17144,-1636,1400,-841,-105,7
2383,854,786,994,772,701,17264,-1584,1384,-858,-129,6
2386,853,788,990,773,701,17192,-1616,1328,-834,-126,2
2389,853,784,993,774,702,17188,-1552,1344,-847,-97,-10
2392,854,791,989,770,697,17116,-1588,1360,-871,-145,0
2395,854,791,993,779,698,17172,-1484,1196,-857,-126,-11
2398,855,786,991,770,693,17192,-1508,1440,-880,-123,-18
2401,854,786,992,766,694,17024,-1516,1256,-869,-139,-37
2404,857,784,994,765,695,17236,-1516,1276,-855,-147,-37
2407,858,786,991,764,699,17068,-1484,1280,-858,-115,-33
2410,862,789,993,759,698,17116,-1552,1380,-860,-110,-29
2413,855,788,991,763,698,17184,-1540,1412,-842,-115,-21
2416,855,784,995,766,693,17148,-1552,1372,-882,-115,-18
2419,856,787,993,765,699,17104,-1480,1312,-884,-112,-4
2422,853,791,995,758,698,17236,-1560,1292,-917,-96,12
2425,859,791,994,765,696,17180,-1544,1372,-912,-65,-15
2428,855,793,993,763,701,17272,-1464,1340,-925,-13,-9
2431,850,795,991,767,698,17356,-1464,1280,-945,19,26
2434,850,794,989,771,698,17200,-1576,1348,-941,32,-1
2437,854,789,987,770,698,17236,-1544,1344,-939,55,-4
2440,851,787,987,773,693,17112,-1456,1244,-977,56,-14
2443,858,801,990,773,697,17212,-1448,1364,-1014,60,-18
2446,853,794,994,777,702,17132,-1548,1264,-1044,35,-20
2449,843,789,989,777,697,17140,-1536,1308,-1109,23,-28
2452,854,797,990,779,701,17148,-1488,1352,-1132,10,-21
2455,855,789,989,781,695,17208,-1576,1228,-1177,12,-37
2458,857,793,986,777,692,17032,-1572,1432,-1170,7,-40
2461,858,790,983,782,695,17100,-1644,1348,-1183,-22,-49
2464,855,794,979,781,692,17160,-1544,1296,-1176,14,-30
2467,858,791,983,779,697,17236,-1452,1324,-1171,-2,-51
2470,855,793,983,778,690,17160,-1548,1332,-1200,-11,-57
2473,851,791,986,775,692,17196,-1536,1380,-1193,-8,-41
2476,855,790,986,769,698,17160,-1568,1276,-1200,20,-76
2479,858,797,988,774,698,17188,-1620,1456,-1246,10,-60
2482,869,795,987,769,695,17156,-1552,1344,-1234,81,-49
2485,859,799,986,769,700,17100,-1640,1312,-1285,74,-54
2488,859,796,988,767,693,17072,-1596,1264,-1278,61,-67
2491,857,794,985,767,693,17052,-1624,1332,-1286,6,-40
2494,852,789,986,767,691,16996,-1604,1452,-1275,-25,-63
2497,851,787,989,767,695,17140,-1688,1224,-1292,-22,-79
2500,849,784,987,769,698,17144,-1656,1208,-1280,-36,-62
2503,859,785,987,762,694,17204,-1672,1380,-1272,-70,-45
2506,850,785,986,763,694,17176,-1736,1288,-1315,-56,-62
2509,851,787,982,762,693,17076,-1796,1472,-1323,-96,-43
2512,852,789,986,762,695,17048,-1752,1284,-1371,-87,-75
2515,858,787,993,767,697,17024,-1760,1172,-1416,-122,-31
2518,857,791,985,765,694,16984,-1772,1340,-1415,-146,-53
2521,860,796,987,765,698,17000,-1820,1208,-1406,-212,-46
2524,849,798,988,767,698,17040,-1888,1088,-1404,-214,-32
2527,860,793,986,768,700,17132,-1792,1344,-1375,-212,-46
2530,855,795,988,770,702,17076,-1844,1296,-1358,-239,-3
2533,858,791,986,770,698,17052,-1784,1224,-1370,-231,-7
2536,858,793,986,772,695,17192,-1796,1276,-1354,-195,8
2539,853,797,983,772,694,17156,-1856,1380,-1363,-150,-4
2542,851,801,987,775,698,17200,-1736,1156,-1347,-109,-7
2545,852,799,985,779,698,17200,-1752,1296,-1318,-100,16
2548,850,799,987,775,699,17232,-1784,1224,-1309,-79,10
2551,855,798,991,773,698,17180,-1820,1164,-1262,-51,7
2554,858,795,989,773,699,17244,-1900,1248,-1220,-29,-16
2557,853,791,986,768,704,17220,-1920,1076,-1219,-18,18
2560,862,795,983,779,699,17152,-1912,1096,-1185,-32,19
2563,857,796,982,764,697,17212,-1800,1108,-1163,-43,9
2566,849,795,983,778,697,17060,-1956,1220,-1133,-23,23
2569,858,797,987,774,701,17148,-1872,1232,-1133,-27,22
2572,859,794,979,770,701,17152,-1928,1208,-1085,-48,18
2575,855,796,989,768,700,17084,-1960,1328,-1081,-76,30
2578,854,797,985,768,701,17144,-2028,1260,-1047,-56,23
2581,853,796,986,772,699,17056,-1956,1124,-1037,-56,12
2584,850,783,988,766,697,17112,-2028,1124,-1052,-62,25
2587,861,790,986,769,698,17044,-2032,1124,-1007,-116,26
2590,853,787,989,767,703,16996,-1904,1312,-997,-118,28
2593,853,789,990,771,699,17036,-2008,1304,-991,-130,11
2596,851,787,991,765,699,17192,-2000,1268,-964,-117,33
2599,850,785,991,768,697,17128,-1964,1520,-971,-110,19
2602,850,784,987,767,703,17176,-1924,1232,-948,-110,66
2605,848,783,993,768,701,17196,-1912,1276,-915,-125,57
2608,848,785,990,766,699,17108,-1900,1264,-875,-92,76
2611,848,787,989,767,695,17076,-1808,1308,-828,-94,83
2614,852,786,989,771,694,17036,-1796,1104,-756,-91,43
2617,853,785,991,770,701,17172,-1824,1184,-751,-82,99
2620,853,784,991,771,698,17124,-1704,1144,-739,-82,61
2623,853,787,990,762,699,17112,-1744,1132,-735,-118,68
2626,851,784,991,761,699,17148,-1808,1092,-745,-92,74
2629,850,784,991,763,696,17132,-1784,1232,-729,-108,95
2632,851,784,991,761,695,17104,-1796,1080,-742,-128,78
2635,850,781,997,766,700,17124,-1744,944,-770,-126,70
2638,853,783,987,763,694,17076,-1820,1068,-738,-89,72
2641,860,784,993,765,695,17104,-1720,1296,-711,-82,55
2644,847,784,993,763,697,17120,-1820,1188,-702,-94,78
2647,855,781,994,761,699,17052,-1856,1008,-727,-69,51
2650,857,784,992,761,703,17072,-1892,1108,-701,-97,48
2653,857,777,992,767,699,17092,-1868,1100,-723,-78,46
2656,859,778,992,763,695,17200,-1896,1204,-743,-64,34
2659,861,779,991,757,698,17072,-1916,1132,-738,-88,19
2662,862,782,994,781,703,17080,-1936,1040,-748,-68,46
2665,865,784,994,758,702,17156,-1976,1092,-794,-97,10
2668,867,784,991,759,701,17196,-1828,1116,-827,-80,35
2671,864,784,997,754,698,17104,-1936,1112,-825,-85,46
2674,866,794,996,762,697,17128,-1924,1116,-805,-71,9
2677,863,799,992,759,698,17088,-1928,1200,-798,-84,22
2680,859,804,993,757,701,17100,-1924,1180,-777,-85,-2
2683,875,804,995,761,699,17188,-1860,1164,-731,-88,27
2686,860,805,992,761,699,17064,-1852,1048,-698,-98,-16
2689,858,807,998,766,700,17128,-1824,1060,-706,-122,4
2692,860,802,999,767,695,17044,-1848,1096,-687,-129,16
2695,858,801,994,766,695,17192,-1860,1100,-714,-148,-22
2698,860,799,993,759,700,17080,-1932,1196,-732,-156,-2
2701,862,797,995,759,694,17088,-1816,1024,-725,-151,-18
2704,857,796,994,765,697,17116,-1884,1268,-765,-168,7
2707,853,794,993,771,695,17104,-1824,1164,-775,-161,-5
2710,855,794,994,756,698,17072,-1848,1260,-726,-135,-12
2713,859,795,1002,766,699,17140,-1836,1072,-724,-115,8
2716,857,794,994,766,699,17140,-1824,1244,-684,-135,-3
2719,857,797,993,765,695,17164,-1792,1172,-711,-107,-1
2722,858,797,997,766,694,17248,-1836,1300,-702,-125,13
2725,874,797,997,764,698,17308,-1816,1228,-727,-118,-25
2728,856,798,994,766,704,17236,-1804,1232,-725,-69,-17
2731,855,799,998,769,699,17252,-1820,1308,-753,-77,-15
2734,859,798,995,771,693,17252,-1800,1308,-758,-55,-36
2737,855,802,995,768,703,17292,-1704,1312,-759,-39,-41
2740,853,794,993,769,695,17212,-1656,1224,-807,14,-36
2743,848,805,993,777,695,17296,-1712,1176,-823,-12,-58
2746,853,802,994,771,694,17184,-1668,1216,-888,15,-72
2749,852,810,989,773,698,17124,-1608,1220,-902,-2,-83
2752,848,814,991,775,694,17240,-1640,1224,-930,12,-76
2755,847,813,992,774,691,17088,-1548,1312,-941,20,-80
2758,843,813,986,773,701,17176,-1608,1292,-931,34,-63
2761,846,814,991,772,699,17160,-1676,1200,-921,25,-99
2764,842,814,992,770,694,17084,-1596,1176,-949,45,-107
2767,843,809,994,770,699,17140,-1604,1148,-919,60,-102
2770,845,802,987,766,697,17060,-1724,1172,-939,54,-138
2773,846,801,990,758,693,17052,-1572,1092,-985,63,-140
2776,844,798,991,768,699,17204,-1592,1184,-1006,67,-134
2779,847,797,985,766,697,17040,-1528,1168,-1042,93,-153
2782,846,795,990,767,702,16964,-1508,1196,-1063,121,-120
2785,848,796,986,770,699,16992,-1556,1232,-1085,75,-107
2788,848,796,986,770,702,17080,-1572,1256,-1158,25,-127
2791,848,793,987,769,701,17080,-1664,1244,-1135,62,-137
2794,853,796,985,771,697,17092,-1652,1100,-1132,90,-99
2797,862,790,990,771,690,17008,-1648,1220,-1148,85,-87
2800,858,794,987,770,698,17112,-1520,1092,-1124,81,-69
2803,859,797,989,773,694,16996,-1688,1048,-1136,69,-70
2806,866,794,988,769,700,17124,-1640,1152,-1178,-9,-93
2809,861,791,986,772,698,17120,-1716,1240,-1132,4,-71
2812,864,797,991,778,701,17220,-1752,1268,-1152,24,-81
2815,862,797,985,784,699,17156,-1732,1112,-1174,-3,-84
2818,861,790,988,775,697,17124,-1872,1176,-1180,27,-73
2821,861,790,991,781,698,17040,-1828,1232,-1169,-22,-103
2824,862,787,989,774,697,17056,-1884,1164,-1187,-37,-82
2827,861,784,985,773,697,16984,-1972,1204,-1146,-14,-119
2830,852,793,979,775,698,17000,-1860,1136,-1121,-59,-114
2833,858,784,983,774,701,17100,-1864,1180,-1103,-58,-78
2836,857,784,980,771,699,17020,-1908,1156,-1072,-73,-94
2839,862,779,985,771,698,17008,-1984,1156,-1066,-100,-88
2842,855,779,983,769,694,17056,-1780,1132,-1047,-57,-108
2845,862,781,986,767,698,16884,-1816,1140,-1069,-68,-87
2848,862,777,992,766,702,16980,-1772,1120,-1046,-68,-72
2851,867,778,989,762,698,17148,-1772,1344,-1047,-60,-67
2854,865,778,989,761,694,17080,-1760,1236,-1056,-48,-69
2857,865,781,990,759,694,16956,-1792,1280,-1061,-51,-35
2860,863,779,993,763,695,17096,-1752,1236,-1055,-57,-33
2863,865,781,992,764,698,17152,-1796,1244,-1045,-33,-24
2866,865,782,988,762,694,17112,-1872,1288,-1038,-19,3
2869,867,780,989,762,695,17116,-1696,1304,-1012,9,3
2872,863,784,992,767,694,17216,-1788,1120,-1029,31,-17
2875,866,782,993,767,689,17168,-1816,1184,-1009,6,-7
2878,867,783,989,768,695,17192,-1824,1252,-1039,50,-11
2881,869,784,986,765,698,17304,-1780,1140,-1083,23,9
2884,867,785,982,765,694,17168,-1892,1248,-1113,80,17
2887,872,793,985,767,691,17152,-1828,1152,-1112,33,2
2890,866,787,985,774,691,17100,-1724,1156,-1166,50,6
2893,864,787,983,776,695,17076,-1844,1224,-1143,10,3
2896,863,786,983,769,695,17144,-1844,1204,-1177,2,-4
2899,857,786,983,766,698,17168,-1808,1348,-1177,-5,11
2902,859,785,982,772,699,17128,-1732,1144,-1201,-29,3
2905,855,791,980,774,690,17132,-1900,1084,-1218,2,28
2908,854,789,983,766,693,17196,-1836,1072,-1231,8,5
2911,860,795,977,770,693,17232,-1792,1168,-1254,23,-5
2914,855,786,985,755,691,17112,-1704,1116,-1255,23,6
2917,857,787,981,764,694,17104,-1708,1072,-1291,33,-1
2920,858,786,981,764,691,17060,-1708,1352,-1279,5,16
2923,857,785,982,762,693,17060,-1748,1064,-1263,9,-27
2926,860,784,984,759,695,17040,-1708,1356,-1234,-20,-17
2929,857,784,986,761,695,16924,-1692,1244,-1227,-19,16
2932,862,781,985,762,691,17140,-1684,1236,-1178,11,-1
2935,856,782,991,762,693,17132,-1628,1316,-1156,10,10
2938,855,781,983,759,693,17096,-1732,1216,-1146,27,23
2941,857,779,985,765,699,17144,-1780,1252,-1141,31,24
2944,877,779,983,759,697,17132,-1860,1172,-1144,38,46
2947,853,775,984,758,693,17044,-1752,1156,-1161,33,33
2950,864,775,983,758,692,17080,-1836,960,-1168,-1,47
2953,861,774,987,756,693,17036,-1828,1236,-1185,8,36
2956,853,781,986,752,693,17140,-1924,1148,-1197,13,42
2959,857,783,976,746,694,17076,-1888,1100,-1157,-17,55
2962,857,783,978,729,694,17176,-1868,1000,-1176,-2,50
2965,855,777,993,720,698,17116,-1944,1020,-1162,-23,53
2968,857,782,976,705,694,17164,-1936,912,-1187,-38,71
2971,853,781,975,686,698,17164,-1892,916,-1186,-29,57
2974,857,784,978,671,693,17252,-1868,936,-1186,-52,91
2977,854,783,976,656,691,17104,-1896,1100,-1224,-23,88
2980,862,787,976,651,691,16932,-1904,1000,-1251,-28,94
2983,858,789,976,642,695,17180,-1864,1048,-1263,-2,92
2986,857,787,979,642,691,17040,-1992,884,-1292,24,113
2989,855,787,976,643,695,17064,-1984,956,-1295,35,126
2992,851,789,983,647,695,17140,-1996,856,-1301,59,126
2995,855,784,983,651,693,16952,-2140,944,-1285,49,160
2998,853,784,981,655,691,16884,-2104,872,-1284,38,131
3001,844,782,989,656,692,17080,-2132,844,-1261,-20,142
3004,851,803,982,658,692,17096,-2136,928,-1225,-44,132
3007,853,780,980,662,694,17008,-2076,900,-1201,-68,132
3010,851,777,983,669,694,16980,-2112,1012,-1195,-115,142
3013,848,775,987,672,695,17028,-2132,992,-1172,-137,148
3016,848,777,985,677,695,16980,-2012,1268,-1147,-252,185
3019,846,779,982,686,698,17108,-2112,1092,-1119,-184,176
3022,847,775,990,694,691,16952,-2112,1176,-1081,-204,197
3025,845,777,1008,695,695,17132,-2184,1264,-1025,-213,233
3028,848,771,981,703,693,17060,-2152,1316,-1014,-176,228
3031,849,768,1003,705,693,17108,-2092,1252,-966,-162,239
3034,851,767,982,705,693,17124,-2224,1248,-902,-169,236
3037,850,765,987,710,695,17052,-2116,1244,-855,-176,281
3040,851,767,985,715,695,17080,-2056,1288,-852,-163,250
3043,854,757,990,720,696,17100,-2072,1124,-775,-157,259
3046,866,753,988,720,691,17016,-2100,1256,-772,-182,282
3049,854,752,989,726,695,17152,-2064,1288,-710,-219,262
3052,848,751,990,733,695,17148,-2028,1064,-719,-212,262
3055,849,752,993,735,693,17052,-1956,1208,-724,-187,262
3058,848,751,992,747,699,16980,-2004,1352,-688,-209,275
3061,846,754,991,751,695,17092,-1996,1184,-643,-196,286
3064,844,755,991,752,695,17172,-1976,1144,-632,-198,271
3067,844,762,992,752,693,17124,-2076,1060,-622,-183,296
3070,847,771,989,749,693,17220,-2040,792,-649,-147,322
3073,841,768,988,751,695,17212,-1996,1012,-668,-164,295
3076,839,768,991,750,696,17056,-1924,1092,-799,-208,289
3079,837,772,989,752,695,17148,-1944,816,-818,-208,277
3082,837,780,988,756,695,17020,-1856,980,-844,-229,299
3085,839,778,993,754,692,17072,-1868,928,-860,-219,239
3088,845,774,993,752,694,17112,-1792,972,-874,-201,234
3091,845,791,997,752,693,17072,-1716,980,-885,-194,208
3094,848,793,995,754,695,17176,-1692,912,-940,-176,182
3097,848,773,993,751,694,17160,-1708,992,-931,-174,165
3100,848,783,996,752,691,17228,-1676,968,-962,-159,135
3103,851,783,993,752,693,17192,-1556,1176,-994,-139,111
3106,854,784,992,745,697,17196,-1612,1004,-972,-103,80
3109,852,785,994,750,693,17208,-1588,1108,-1009,-120,80
3112,857,788,990,747,699,17216,-1628,1172,-1025,-86,55
3115,865,790,1003,747,688,17172,-1668,1196,-993,-135,5
3118,868,785,986,747,693,17100,-1640,1284,-1031,-107,-13
3121,863,784,989,752,695,17240,-1608,1204,-1014,-120,-33
3124,863,785,993,749,697,17144,-1772,1180,-1032,-88,-33
3127,864,788,990,752,696,17252,-1776,1164,-1026,-113,-61
3130,863,784,989,752,697,17220,-1756,1252,-1030,-83,-57
3133,860,781,985,752,690,17196,-1796,1216,-1016,-50,-78
3136,871,779,982,753,695,17308,-1708,1356,-968,-44,-85
3139,861,780,980,756,693,17164,-1860,1272,-900,-49,-135
3142,857,781,981,756,690,17204,-1744,1404,-868,-5,-154
3145,864,779,991,754,690,17144,-1860,1276,-795,-50,-178
3148,855,784,982,761,688,17144,-1776,1248,-790,-22,-178
3151,859,788,976,758,693,17096,-1728,1216,-770,-62,-215
3154,854,791,981,759,695,17196,-1860,1220,-794,-76,-215
3157,853,799,976,757,691,17192,-1852,1416,-803,-32,-216
3160,853,797,979,758,691,17168,-1900,1360,-834,1,-210
3163,851,801,976,756,689,17164,-1868,1224,-842,4,-226
3166,839,800,976,756,688,17084,-1984,1192,-804,29,-214
3169,849,801,978,759,694,17220,-1832,1208,-821,26,-229
3172,848,803,978,763,690,17144,-1948,1176,-811,-5,-225
3175,851,803,976,764,689,17152,-1900,1144,-816,17,-221
3178,852,800,977,767,693,17148,-1952,1184,-812,33,-215
3181,852,805,976,771,691,17220,-1820,1040,-828,24,-200
3184,848,799,979,774,695,17204,-1876,1028,-846,42,-210
3187,853,795,980,774,691,17256,-1864,920,-846,44,-212
3190,855,813,977,779,690,17068,-1924,888,-902,62,-193
3193,855,791,981,782,689,17224,-1812,1176,-903,59,-173
3196,853,791,982,789,689,17188,-1836,1044,-911,51,-182
3199,855,788,984,784,694,17140,-1820,1112,-931,76,-179
3202,858,789,982,786,697,17088,-1896,980,-935,55,-152
3205,851,787,982,786,692,17156,-1820,1168,-937,32,-177
3208,848,784,987,787,694,17036,-1852,1068,-925,20,-181
3211,849,793,987,799,693,17116,-1932,1000,-966,-4,-160
3214,842,785,987,786,693,17116,-1824,1316,-955,-21,-151
3217,849,785,987,787,693,17140,-1824,1232,-963,8,-144
3220,851,786,983,790,695,17164,-1768,1180,-996,-12,-150
3223,848,794,983,788,695,17156,-1852,1104,-971,-15,-154
3226,851,787,987,790,691,17252,-1740,1144,-1001,66,-143
3229,851,793,986,788,693,17348,-1648,1232,-1021,85,-159
3232,850,790,986,790,695,17200,-1764,1212,-1045,76,-156
3235,855,789,987,790,693,17136,-1832,1228,-1079,115,-146
3238,848,786,982,801,693,17080,-1808,1032,-1102,90,-155
3241,855,795,986,788,694,17052,-1716,1272,-1151,79,-172
3244,863,791,997,787,695,16988,-1728,1220,-1206,74,-156
3247,859,789,995,789,698,17080,-1704,1164,-1222,64,-146
3250,859,790,991,793,694,17016,-1780,1232,-1251,58,-161
3253,862,795,988,796,691,17060,-1792,1068,-1290,65,-98
3256,858,793,990,794,692,17192,-1756,1312,-1317,64,-124
3259,864,784,987,794,693,17168,-1808,1124,-1335,46,-95
3262,861,792,990,797,693,17144,-1776,1112,-1339,72,-90
3265,860,787,994,790,694,17080,-1872,1132,-1329,44,-94
3268,863,786,993,792,691,17044,-1804,1120,-1343,33,-92
3271,865,784,991,789,693,17020,-1952,1092,-1312,38,-81
3274,859,795,988,793,691,17088,-1872,1124,-1287,52,-101
3277,863,785,991,789,688,17048,-1964,1008,-1255,55,-110
3280,861,784,993,793,694,17000,-1900,1088,-1227,18,-84
3283,864,781,990,795,691,17060,-1968,1180,-1199,-9,-117
3286,864,783,987,801,695,16992,-2048,1048,-1203,14,-93
3289,862,784,988,795,694,17060,-1892,1044,-1190,9,-88
3292,863,780,989,794,693,17132,-1980,940,-1231,-36,-87
3295,857,784,993,790,695,17020,-2032,1056,-1269,-5,-90
3298,862,785,992,791,694,17044,-2068,1188,-1258,-69,-79
3301,864,787,992,791,694,17096,-1996,1176,-1263,-62,-83
3304,855,791,995,789,693,17112,-1984,1124,-1257,-68,-96
3307,853,791,994,790,694,17056,-1936,1304,-1154,-68,-67
3310,853,786,992,789,690,17084,-2040,1304,-1087,-135,-59
3313,854,794,989,790,689,17172,-1932,1396,-996,-123,-59
3316,850,797,989,790,691,17040,-1948,1340,-930,-134,-49
3319,851,794,990,789,699,17108,-1984,1392,-868,-175,-45
3322,851,791,989,795,691,17064,-1812,1288,-812,-147,-27
3325,848,791,992,791,694,17044,-1916,1412,-806,-134,-59
3328,848,797,991,789,693,17092,-1876,1344,-785,-151,-31
3331,847,795,991,788,691,17088,-1928,1268,-787,-95,-4
3334,838,799,989,795,691,17112,-1820,1416,-770,-89,10
3337,848,801,990,794,695,17136,-1848,1324,-790,-53,4
3340,848,800,991,800,694,17036,-1848,1296,-785,-76,12
3343,847,799,983,799,694,17104,-1876,1268,-775,-82,34
3346,845,791,985,800,689,17036,-1796,1124,-775,-72,41
3349,847,785,998,800,688,17076,-1932,1280,-754,-84,48
3352,847,784,987,798,691,17044,-1968,1108,-708,-117,38
3355,861,781,981,795,690,17004,-1976,1012,-712,-112,49
3358,848,772,986,787,689,16992,-1992,1060,-729,-155,49
3361,848,771,995,785,689,17112,-1996,1004,-741,-164,46
3364,848,770,994,785,690,17108,-1880,1196,-769,-152,54
3367,848,771,992,788,690,17200,-1952,1076,-845,-148,36
3370,848,773,991,787,692,17184,-1988,996,-853,-122,53
3373,848,775,993,787,691,17176,-1864,944,-887,-138,37
3376,847,778,990,787,689,17180,-1952,1092,-910,-82,41
3379,848,775,990,786,695,17180,-1992,912,-938,-126,18
3382,848,775,988,784,690,17272,-1888,1028,-947,-108,5
3385,850,779,989,784,693,17196,-1760,864,-970,-140,1
3388,848,780,983,784,692,17144,-1816,904,-919,-158,-45
3391,848,784,982,784,690,17220,-1692,840,-916,-184,-41
3394,848,783,982,779,692,17232,-1732,1052,-842,-173,-54
3397,849,786,978,780,693,17140,-1756,1072,-775,-133,-81
3400,848,789,988,773,695,17192,-1784,1136,-753,-148,-83
3403,848,789,987,759,690,17224,-1756,1160,-690,-133,-116
3406,859,791,982,773,693,17168,-1808,1144,-705,-103,-109
3409,850,794,983,773,688,17168,-1884,1256,-706,-93,-107
3412,850,797,983,769,690,17236,-1860,1232,-739,-87,-112
3415,850,795,1008,774,689,17076,-1828,1292,-767,-41,-101
3418,852,797,986,777,691,17176,-1852,1116,-765,-65,-103
3421,850,794,983,774,687,17200,-1844,1088,-774,-53,-82
3424,849,794,986,775,690,17264,-1860,1136,-753,-20,-74
3427,848,793,987,775,689,17160,-1868,1188,-735,-47,-89
3430,848,794,976,778,691,17164,-1964,1200,-713,-40,-90
3433,849,784,978,779,689,17144,-1976,1204,-711,-31,-83
3436,848,784,986,782,689,17136,-1900,1064,-668,-54,-114
3439,847,784,981,779,688,17236,-1928,1060,-702,-35,-105
3442,849,784,987,784,689,17184,-1964,1124,-711,-38,-101
3445,849,793,977,784,689,17080,-1784,1124,-701,-16,-104
3448,848,785,983,782,689,17208,-1896,1184,-751,-7,-93
3451,848,783,983,780,690,17244,-1844,1060,-749,-4,-121
3454,849,783,977,783,688,17176,-1948,1048,-754,30,-124
3457,851,784,982,779,693,17164,-1908,1108,-767,39,-117
3460,850,784,985,778,691,17124,-1780,952,-753,51,-153
3463,848,783,979,777,688,17212,-1852,1116,-778,57,-139
3466,849,784,979,773,688,17100,-1756,892,-762,30,-129
3469,852,787,978,774,688,17088,-1844,856,-774,74,-183
3472,854,785,979,779,693,17088,-1780,908,-752,36,-146
3475,855,791,982,769,693,17028,-1716,1080,-763,22,-170
3478,852,793,979,768,691,17032,-1716,1056,-716,20,-190
3481,851,805,983,766,690,17088,-1744,1200,-709,17,-171
3484,853,796,982,767,687,17140,-1796,1060,-677,28,-179
3487,849,799,980,765,691,17000,-1772,1132,-702,24,-174
3490,850,799,977,763,694,17048,-1696,1184,-700,15,-167
3493,855,797,980,759,690,17100,-1700,1052,-698,6,-143
3496,854,795,983,754,689,17084,-1612,1260,-726,27,-132
3499,850,798,979,755,690,17104,-1748,1060,-737,39,-125
3502,851,799,981,758,688,17112,-1744,1064,-770,54,-115
3505,850,798,976,759,693,17096,-1780,1020,-767,43,-106
3508,850,796,979,762,691,17176,-1828,1104,-788,57,-145
3511,853,799,978,759,689,17244,-1888,1024,-779,77,-117
3514,851,799,978,753,688,17144,-1932,972,-774,39,-124
3517,848,800,987,753,691,17200,-1872,944,-731,61,-135
3520,855,802,994,751,697,17136,-2028,1044,-719,97,-146
3523,855,796,986,749,691,17132,-1964,1096,-721,38,-166
3526,855,797,982,742,690,17252,-1984,1060,-715,20,-156
3529,855,795,985,747,692,17076,-2068,1068,-754,50,-175
3532,855,791,980,745,691,17156,-2024,1104,-775,8,-158
3535,850,786,987,743,693,17224,-2036,1180,-749,50,-186
3538,855,787,981,746,691,17116,-2036,1092,-737,50,-167
3541,852,786,979,750,692,17184,-1872,1044,-697,67,-169
3544,855,788,981,755,694,17044,-1940,1020,-645,22,-158
3547,851,785,979,740,693,17076,-1860,976,-613,28,-159
3550,852,787,978,752,695,17044,-1908,1040,-613,42,-152
3553,850,787,979,752,694,17228,-1868,972,-598,36,-162
3556,860,789,985,751,690,17024,-1832,1208,-591,43,-166
3559,852,784,978,753,689,17148,-1840,1036,-621,41,-176
3562,855,790,981,755,693,17128,-1836,1072,-624,33,-157
3565,855,791,985,753,693,17104,-1792,1292,-632,37,-134
3568,850,789,983,750,697,17200,-1660,1220,-642,24,-138
3571,855,791,983,757,692,17124,-1820,1092,-658,25,-133
3574,854,788,986,759,688,17156,-1824,1144,-663,74,-104
3577,851,788,983,754,693,17084,-1744,1192,-701,37,-87
3580,851,791,986,763,690,17104,-1756,1052,-686,56,-102
3583,853,795,986,768,694,17080,-1676,1080,-723,51,-81
3586,849,794,983,768,693,17172,-1712,1168,-762,11,-110
3589,851,788,982,767,691,17096,-1780,1140,-768,-28,-101
3592,850,809,982,765,693,17036,-1716,1140,-786,2,-128
3595,837,789,985,764,693,17120,-1752,1200,-815,-12,-91
3598,848,788,989,766,695,17188,-1688,1052,-855,5,-110
3601,849,792,986,766,693,17184,-1612,1232,-900,13,-80
3604,848,797,990,768,689,17192,-1668,1148,-923,39,-99
3607,852,799,988,763,693,17176,-1652,1160,-1019,46,-69
3610,848,796,982,768,694,17272,-1596,1184,-1070,57,-75
3613,850,784,990,767,694,17180,-1552,1372,-1060,84,-61
3616,855,804,987,764,695,17196,-1668,1252,-1068,55,-66
3619,853,785,990,764,688,17120,-1668,1088,-1083,125,-35
3622,853,780,985,765,691,17140,-1684,1280,-1135,140,-76
3625,865,784,993,767,690,17052,-1592,1172,-1089,108,-51
3628,854,787,990,761,692,16944,-1624,1216,-1117,96,-69
3631,859,784,994,762,692,17044,-1752,1312,-1165,43,-33
3634,854,788,999,765,693,17000,-1708,1236,-1159,67,-35
3637,858,787,985,767,690,16964,-1760,1244,-1176,49,-51
3640,855,785,990,764,694,17012,-1748,1416,-1247,62,-43
3643,854,787,993,766,691,16984,-1876,1456,-1237,30,-38
3646,859,787,986,755,691,17004,-1752,1424,-1255,-1,-27
3649,853,791,989,765,694,17016,-1848,1248,-1275,15,-37
3652,853,787,991,768,689,17064,-1888,1424,-1244,-10,-24
3655,851,787,989,766,691,17084,-1868,1280,-1250,-21,-12
3658,849,786,986,768,696,17056,-1908,1260,-1245,-56,-29
3661,848,791,990,769,690,17120,-1984,1400,-1264,-52,0
3664,852,788,986,770,693,17196,-1932,1328,-1276,-52,1
3667,849,795,986,770,688,17148,-1848,1540,-1291,-47,3
3670,855,793,986,774,692,17152,-1928,1344,-1308,-53,-5
3673,853,790,995,773,689,17152,-1920,1456,-1294,-66,12
3676,850,785,987,772,691,17100,-1860,1444,-1244,-61,-17
3679,851,785,990,768,689,17028,-1772,1496,-1239,-66,30
3682,848,784,985,770,691,16968,-1828,1568,-1194,-35,-3
3685,850,783,989,774,691,16968,-1884,1404,-1167,-55,-1
3688,849,782,983,774,695,17184,-1908,1520,-1121,-42,1
3691,849,783,983,769,689,17156,-1880,1364,-1096,-28,5
3694,847,777,986,773,688,17144,-1884,1408,-1103,-33,17
3697,850,783,985,769,690,17168,-1908,1216,-1125,-28,15
3700,848,784,986,771,689,17164,-1752,1424,-1135,-22,3
3703,848,785,983,769,690,17120,-1824,1300,-1144,34,21
3706,848,785,982,768,691,17112,-1828,1240,-1171,32,36
3709,848,792,988,773,688,17124,-1804,1252,-1160,59,5
3712,849,784,981,763,689,17108,-1884,1320,-1156,62,4
3715,851,788,981,765,688,17096,-1804,1368,-1169,70,24
3718,857,787,986,765,689,17116,-1728,1300,-1132,39,-10
3721,851,795,982,762,688,17120,-1828,1408,-1126,34,5
3724,850,795,979,763,688,17036,-1760,1260,-1163,25,-17
3727,861,802,987,762,688,17108,-1780,1260,-1180,37,15
3730,857,793,981,765,689,17060,-1728,1308,-1143,11,-27
3733,855,795,985,764,689,17164,-1812,1368,-1188,-15,-14
3736,855,792,987,761,692,17104,-1772,1264,-1166,-16,-2
3739,859,801,985,768,688,17056,-1716,1132,-1195,-20,-16
3742,858,796,985,767,688,17092,-1788,1280,-1194,-13,-26
3745,853,801,979,764,688,17228,-1792,1148,-1218,-41,-22
3748,855,797,982,770,689,17208,-1828,1144,-1295,-27,-27
3751,854,798,981,768,692,17104,-1780,1112,-1339,-31,-24
3754,857,797,979,767,688,17184,-1824,1336,-1396,-41,-14
3757,854,797,990,766,686,17112,-1808,1316,-1405,-68,-57
3760,852,784,986,768,689,17172,-1876,1232,-1441,-83,-41
3763,852,793,987,766,688,17184,-1900,1164,-1433,-78,-54
3766,851,793,985,769,689,17064,-1784,1276,-1406,-90,-51
3769,852,789,987,767,690,17000,-1884,1388,-1405,-68,-49
3772,848,788,981,762,690,17052,-1868,1324,-1385,-24,-58
3775,853,793,982,766,689,17172,-1912,1336,-1385,-40,-58
3778,849,785,985,767,691,17148,-1932,1288,-1345,17,-53
3781,848,785,985,767,696,17120,-1908,1268,-1353,25,-54
3784,848,784,985,767,691,17192,-1792,1108,-1322,24,-54
3787,857,784,987,765,687,17160,-1780,1164,-1329,23,-70
3790,848,784,987,767,693,17096,-1832,1076,-1310,27,-61
3793,847,788,989,767,689,17248,-1808,1108,-1281,41,-63
3796,871,787,989,765,691,17124,-1864,1204,-1257,28,-82
3799,849,787,987,769,693,17156,-1860,1060,-1215,24,-94
3802,853,790,983,767,691,17128,-1836,1120,-1204,25,-96
3805,854,791,992,769,690,17048,-1868,1028,-1178,20,-100
3808,855,790,987,770,691,17076,-1924,964,-1199,6,-118
3811,851,794,989,770,688,17080,-2004,1148,-1194,-23,-122
3814,852,796,979,767,691,17064,-2064,876,-1185,-57,-115
3817,854,814,983,769,689,17032,-2016,1144,-1179,-48,-118
3820,855,795,989,766,689,17088,-2068,1140,-1156,-88,-117
3823,853,796,991,773,692,16992,-1928,1208,-1173,-94,-126
3826,853,793,990,773,691,17204,-2044,1128,-1156,-74,-97
3829,851,797,987,778,695,17108,-2012,1344,-1161,-112,-130
3832,851,799,986,775,694,17084,-1964,1176,-1161,-128,-94
3835,848,795,989,778,691,17044,-2044,1156,-1181,-135,-80
3838,847,797,987,778,693,17128,-2060,1212,-1183,-96,-83
3841,848,793,987,780,691,17240,-2016,1180,-1168,-68,-63
3844,849,795,983,779,694,17196,-1976,1064,-1160,-38,-65
3847,848,795,987,780,695,17132,-1968,1108,-1145,-32,-48
3850,847,792,985,784,691,17104,-2068,1188,-1093,3,-66
3853,848,785,986,783,693,17156,-1972,1072,-1057,-5,-69
3856,849,785,993,784,694,17140,-2016,1048,-1026,-11,-66
3859,851,784,987,782,693,17152,-2064,1032,-978,19,-58
3862,848,781,989,781,694,17268,-2108,1096,-982,11,-66
3865,849,781,990,783,691,17140,-2116,980,-961,23,-65
3868,849,783,993,782,695,17212,-1980,1004,-955,10,-106
3871,848,785,989,779,698,17052,-2056,820,-952,44,-100
3874,847,798,995,781,695,17080,-1980,960,-932,22,-93
3877,848,788,987,782,698,17044,-2016,976,-923,19,-115
3880,851,788,989,777,692,17188,-1976,1032,-917,18,-106
3883,853,789,991,775,694,17172,-1960,1008,-901,-15,-100
3886,851,787,989,770,691,17032,-2080,944,-872,-23,-107
3889,849,787,990,768,693,17072,-2028,996,-848,-49,-111
3892,851,788,991,759,692,17000,-1960,1100,-856,-86,-115
3895,852,785,993,771,695,17132,-1924,1080,-818,-117,-120
3898,851,786,990,769,692,17028,-1936,956,-774,-79,-109
3901,858,784,994,772,695,16892,-1904,1080,-780,-100,-114
3904,854,787,995,774,692,17176,-1996,1140,-730,-103,-107
3907,851,798,986,773,694,17032,-1948,1184,-734,-80,-96
3910,853,787,991,778,693,17072,-1904,1028,-707,-88,-91
3913,849,794,983,777,693,16980,-1896,1172,-709,-97,-100
3916,852,785,996,779,692,17140,-1920,1220,-673,-70,-108
3919,848,784,990,775,699,17140,-1756,1184,-664,-68,-101
3922,836,784,987,771,698,17084,-1844,1100,-612,-38,-92
3925,848,783,983,770,691,17088,-1728,1268,-579,-44,-65
3928,846,771,982,768,695,17180,-1856,1088,-613,-53,-93
3931,847,784,986,766,698,17120,-1768,1288,-576,-30,-74
3934,848,783,981,767,695,17140,-1796,1240,-587,-33,-73
3937,848,784,987,771,690,17140,-1584,1020,-580,-14,-105
3940,849,781,985,767,691,17092,-1700,1124,-570,-30,-93
3943,848,779,983,771,694,16996,-1656,1236,-558,-18,-88
3946,847,784,989,767,693,17032,-1676,1164,-562,-8,-75
3949,847,780,986,765,691,17052,-1652,1164,-570,-37,-77
3952,848,782,987,767,691,17052,-1600,972,-586,-23,-57
3955,848,783,981,754,691,17196,-1604,1096,-607,-8,-41
3958,850,779,989,757,691,17160,-1564,1016,-634,0,-70
3961,851,784,983,759,694,17164,-1588,1072,-669,-17,-75
3964,853,784,983,758,691,17104,-1616,920,-734,-8,-42
3967,854,789,983,759,691,17184,-1600,1000,-792,10,-57
3970,860,787,987,759,699,17176,-1624,960,-831,20,-76
3973,861,791,985,759,689,17144,-1596,1064,-890,-1,-78
3976,856,801,983,756,692,17188,-1620,1224,-941,-28,-68
3979,854,793,990,759,691,17196,-1628,1040,-967,-18,-86
3982,858,794,988,762,690,17160,-1760,1100,-1033,-39,-75
3985,861,798,981,759,689,17168,-1640,1168,-1061,-30,-98
3988,857,797,985,761,689,17148,-1564,1236,-1092,-60,-118
3991,854,800,989,765,697,17188,-1652,1180,-1131,-33,-95
3994,850,797,985,762,691,17156,-1636,1168,-1136,-43,-106
3997,848,793,983,761,691,17164,-1460,1368,-1145,-50,-128
4000,848,791,983,769,694,17232,-1540,1376,-1106,-21,-97
4003,848,795,989,764,691,17216,-1472,1284,-1096,11,-112
4006,848,787,983,768,689,17232,-1464,1284,-1061,37,-66
4009,845,784,987,765,691,17192,-1556,1272,-1088,56,-112
4012,851,782,985,766,698,17156,-1548,1344,-1053,90,-111
4015,843,779,991,767,694,17076,-1528,1304,-1056,78,-92
4018,850,777,987,767,693,17184,-1560,1300,-1055,61,-104
4021,850,777,986,762,689,17148,-1528,1168,-1059,53,-134
4024,850,777,976,766,693,17020,-1588,1232,-1035,79,-85
4027,853,779,982,768,693,17088,-1676,1144,-1052,71,-75
4030,849,784,979,765,691,16956,-1676,1208,-1020,63,-116
4033,851,784,981,767,691,17076,-1680,1200,-1039,57,-74
4036,854,782,985,767,689,17060,-1696,1180,-1055,50,-72
4039,850,784,982,768,689,17120,-1692,1068,-1067,37,-48
4042,846,783,983,769,693,17040,-1820,1028,-1071,57,-68
4045,849,784,981,773,688,17024,-1840,1220,-1100,35,-62
4048,854,785,980,770,690,16988,-1708,1100,-1137,47,-56
4051,853,800,983,771,690,17172,-1788,1008,-1120,34,-66
4054,854,788,983,771,691,17184,-1856,1240,-1157,31,-43
4057,849,787,977,769,691,17076,-1824,1232,-1173,28,-66
4060,855,786,978,771,690,17140,-1848,1336,-1185,49,-49
4063,856,786,979,771,690,17196,-1896,1184,-1193,56,-52
4066,853,788,978,774,688,17176,-1932,1040,-1227,57,-38
4069,860,786,978,783,688,17148,-1896,1064,-1239,38,-22
4072,858,791,978,777,689,17104,-1868,920,-1257,29,-38
4075,855,791,981,783,687,17156,-1892,1328,-1291,4,-35
4078,858,793,978,774,689,17128,-1924,988,-1278,-13,-51
4081,855,797,978,779,688,17148,-1912,1176,-1286,9,-56
4084,852,796,978,771,688,17304,-1892,1156,-1275,-21,-33
4087,854,805,981,774,688,17268,-1908,1168,-1303,8,-49
4090,855,800,979,773,688,17144,-1884,1048,-1260,-33,-51
4093,850,796,983,773,688,17104,-1880,1148,-1247,-3,-34
4096,849,797,979,773,688,17060,-1916,1148,-1228,25,-45
4099,853,799,979,768,687,17068,-1788,1144,-1186,17,-35
4102,851,790,986,770,691,17052,-1892,1188,-1190,22,-50
4105,848,787,986,766,689,16924,-1904,1328,-1163,-3,-40
4108,850,792,982,767,688,17112,-1888,1108,-1164,21,-42
4111,853,784,986,763,693,17056,-1924,1180,-1166,41,-40
4114,850,785,981,759,690,17092,-1884,1048,-1179,33,-48
4117,855,785,986,765,691,17132,-1912,1180,-1160,74,-34
4120,853,791,985,762,691,17068,-1956,1268,-1167,48,-60
4123,851,787,981,758,692,17148,-1904,1264,-1159,44,-24
4126,851,785,983,771,691,17016,-1932,1232,-1131,71,-40
4129,854,786,985,770,690,17056,-1940,1240,-1097,80,-30
4132,852,787,986,771,693,16984,-2008,1252,-1074,83,-63
4135,851,786,990,771,693,17072,-1908,1204,-1007,51,-22
4138,856,784,988,767,691,17260,-1952,1240,-1005,81,-35
4141,850,785,983,767,691,17108,-1932,1108,-1003,52,-66
4144,850,791,985,762,688,17088,-2080,1144,-976,53,-38
4147,852,790,983,763,690,17096,-2140,1064,-980,59,-74
4150,854,786,989,765,693,17092,-2028,1228,-1016,20,-53
4153,853,787,991,765,690,17192,-2180,1148,-987,23,-79
4156,854,786,983,763,689,17012,-2124,1248,-995,35,-98
4159,853,789,985,768,694,17088,-2148,1184,-1023,5,-95
4162,853,785,982,769,688,17076,-2016,996,-987,12,-88
4165,854,790,982,768,691,17096,-2164,1128,-998,-11,-111
4168,849,802,979,781,691,17148,-2132,996,-974,-21,-94
4171,850,787,983,763,691,17208,-2216,1148,-963,-53,-91
4174,848,786,985,766,694,17204,-2120,1096,-911,-43,-93
4177,848,793,985,775,691,17076,-2136,1260,-873,-83,-117
4180,853,794,981,766,694,17148,-2056,1244,-873,-53,-84
4183,850,786,987,767,695,17128,-2124,1208,-825,-55,-121
4186,849,791,982,767,691,17036,-2092,1184,-809,-35,-115
4189,848,791,979,767,690,17124,-2052,1352,-768,-44,-107
4192,853,791,983,768,688,17172,-2000,1252,-783,4,-109
4195,850,787,983,770,691,17104,-2080,1192,-759,-32,-115
4198,850,793,986,772,697,17168,-1932,1296,-741,-10,-63
4201,847,790,982,771,691,17052,-2048,1316,-674,17,-94
4204,848,790,983,771,692,17056,-1996,1252,-647,37,-71
4207,848,785,983,770,688,17116,-2056,1272,-606,19,-87
4210,848,788,980,764,691,17068,-1916,1164,-565,17,-79
4213,848,789,986,763,695,17072,-1988,1184,-553,31,-81
4216,848,789,983,765,688,17044,-1960,1280,-534,12,-70
4219,848,793,983,763,691,17124,-1868,1192,-533,31,-59
4222,847,790,986,764,691,17036,-1900,1296,-507,30,-65
4225,846,787,990,768,694,17024,-1800,1168,-504,-3,-60
4228,848,788,983,767,693,17100,-1972,1276,-494,14,-85
4231,844,786,989,768,688,17180,-1884,1172,-471,-10,-97
4234,843,784,986,768,688,17044,-1908,1148,-502,13,-80
4237,847,789,986,771,688,17088,-1884,1056,-502,0,-99
4240,848,785,982,770,688,17124,-1868,1248,-505,10,-81
4243,847,784,982,768,692,17076,-1888,1028,-540,22,-94
4246,843,784,988,771,691,17120,-1808,1156,-552,7,-76
4249,849,777,989,769,691,17184,-1928,1100,-566,-14,-98
4252,849,786,982,769,700,17064,-1828,1100,-568,-42,-111
4255,851,787,986,773,689,17040,-1708,1092,-577,-33,-121
4258,850,785,987,775,691,17092,-1696,936,-567,-76,-116
4261,852,784,986,766,690,17012,-1856,1148,-601,-58,-85
4264,849,784,990,769,688,17064,-1772,1124,-623,-51,-115
4267,854,784,987,768,691,17128,-1792,1128,-603,-22,-82
4270,851,786,981,768,691,17208,-1680,1200,-617,-22,-100
4273,849,786,982,761,690,17148,-1652,1208,-640,3,-110
4276,850,786,983,763,691,17132,-1752,1096,-643,-2,-104
4279,848,785,984,764,688,17136,-1692,1036,-657,-17,-98
4282,849,789,982,765,692,17252,-1712,1156,-680,-21,-76
4285,848,789,982,762,694,17268,-1672,1244,-722,-43,-88
4288,849,784,989,763,688,17072,-1620,1068,-729,-24,-95
4291,842,787,982,763,693,17024,-1792,1312,-763,-32,-92
4294,846,786,983,755,690,17116,-1600,1364,-768,-40,-77
4297,848,784,983,762,691,17048,-1656,1360,-798,-41,-87
4300,848,783,978,762,694,17000,-1668,1280,-782,-19,-76
4303,848,781,987,762,688,17144,-1556,1184,-762,-8,-84
4306,849,788,987,763,689,17128,-1520,1060,-760,-18,-56
4309,849,781,986,761,690,17040,-1728,1180,-760,-9,-67
4312,851,784,982,768,690,17080,-1668,1244,-780,-14,-64
4315,853,785,987,759,691,17196,-1632,1192,-747,-9,-46
4318,854,785,981,765,692,17040,-1652,1216,-792,9,-67
4321,851,807,975,765,693,17084,-1692,1192,-779,-20,-81
4324,848,787,985,763,689,17128,-1880,956,-816,-46,-70
4327,851,786,982,753,690,17124,-1720,1100,-815,-49,-74
4330,851,778,980,767,694,17084,-1812,1184,-805,-72,-62
4333,849,784,985,774,689,17176,-1836,1164,-854,-39,-54
4336,851,785,981,765,690,17164,-1744,1192,-851,-52,-91
4339,854,784,983,763,694,17296,-1828,1000,-891,-36,-70
4342,848,783,980,769,691,17184,-1908,1208,-886,-16,-80
4345,853,795,980,763,698,17228,-1764,1140,-913,-23,-75
4348,850,786,985,764,692,17076,-1792,1084,-901,-13,-56
4351,851,786,985,757,691,17072,-1752,1124,-911,-36,-70
4354,851,784,981,755,695,17096,-1732,1132,-894,-22,-114
4357,853,785,987,763,693,17104,-1824,1064,-892,-55,-109
4360,851,790,983,759,693,17148,-1772,1164,-896,-33,-93
4363,854,793,986,759,695,17160,-1756,1276,-893,-34,-104
4366,854,791,982,763,689,17084,-1732,1132,-919,-12,-101
4369,850,793,987,764,691,17180,-1760,1220,-924,12,-81
4372,848,793,987,767,693,17024,-1672,1092,-953,13,-88
4375,853,794,985,765,694,17156,-1664,1308,-933,36,-75
4378,845,789,997,763,690,17152,-1684,1424,-926,55,-86
4381,843,791,983,767,691,17152,-1660,1344,-903,58,-87
4384,847,795,983,769,688,17036,-1684,1256,-879,66,-84
4387,846,791,983,768,691,17132,-1768,1384,-841,52,-103
4390,845,784,982,768,692,17032,-1712,1228,-852,50,-104
4393,846,786,983,766,695,17172,-1732,1128,-806,27,-130
4396,848,790,983,762,690,17020,-1748,1332,-825,16,-115
4399,847,785,981,767,690,17132,-1748,1140,-820,-5,-118
4402,848,788,981,767,691,17116,-1796,1204,-827,-18,-144
4405,848,790,987,771,695,17064,-1792,1252,-811,-23,-113
4408,843,793,985,784,691,17076,-1876,1128,-799,-20,-124
4411,847,790,981,774,693,17168,-1884,1324,-820,-29,-125
4414,844,791,983,769,693,17088,-1960,1236,-816,18,-138
4417,848,790,985,773,691,17160,-1820,1216,-815,-3,-113
4420,848,786,989,775,691,17052,-1856,1264,-811,41,-138
4423,848,787,983,773,695,17200,-1864,1212,-826,20,-128
4426,854,784,988,765,689,17084,-1852,1216,-862,27,-162
4429,848,788,990,768,694,17088,-1932,1304,-872,26,-152
4432,852,784,983,771,690,17272,-1808,1140,-888,6,-148
4435,851,785,987,767,695,17188,-1932,1228,-851,8,-145
4438,849,786,994,768,691,17108,-1816,1132,-866,19,-161
4441,865,791,987,771,693,17132,-1900,1148,-878,32,-143
4444,851,789,985,778,693,17100,-1816,1188,-875,38,-162
4447,849,784,990,769,689,17192,-1884,1052,-869,21,-163
4450,848,795,986,768,689,17156,-1792,1216,-848,72,-163
4453,848,784,989,769,690,17080,-1852,1048,-905,72,-155
4456,848,787,987,768,688,17112,-1664,1160,-903,56,-148
4459,851,784,986,766,689,17080,-1824,1080,-930,62,-157
4462,851,784,987,766,694,17024,-1820,1168,-959,95,-157
4465,851,786,986,768,691,17056,-1808,1124,-941,101,-158
4468,852,786,987,767,698,17132,-1840,1208,-967,73,-147
4471,853,784,988,763,688,17052,-1852,1168,-915,100,-167
4474,854,788,983,765,688,17116,-1736,1268,-920,98,-180
4477,851,790,990,757,690,17076,-1768,1260,-902,97,-174
4480,851,786,986,758,691,17188,-1816,1300,-886,67,-184
4483,852,787,983,755,690,17104,-1732,1428,-877,62,-189
4486,848,789,986,757,690,17024,-1792,1268,-865,32,-163
4489,847,790,991,761,688,17080,-1828,1372,-864,26,-190
4492,848,790,989,764,692,17136,-1908,1020,-834,23,-187
4495,848,790,982,763,688,17112,-1804,1204,-865,2,-188
4498,848,791,986,766,690,17076,-1784,1148,-910,13,-155
4501,848,784,987,769,689,17164,-1808,1160,-893,9,-175
4504,854,790,987,767,689,17132,-1844,1184,-951,16,-170
4507,848,790,991,770,692,17152,-1784,1244,-925,22,-145
4510,848,785,985,774,693,17084,-1844,1264,-927,41,-148
4513,848,794,991,775,691,17096,-1900,1212,-890,17,-147
4516,850,794,988,783,691,17088,-1916,1176,-872,44,-152
4519,850,791,987,774,688,17156,-1944,1104,-843,53,-158
4522,848,790,991,772,693,17088,-1984,960,-838,42,-140
4525,848,789,987,770,692,17060,-1848,976,-825,23,-142
4528,850,791,989,771,695,17084,-1860,1140,-815,27,-146
4531,854,795,983,775,692,17040,-1816,1216,-799,53,-138
4534,853,793,989,771,689,17224,-1780,1164,-855,47,-124
4537,855,798,988,771,691,17064,-1756,1308,-882,49,-134
4540,855,794,983,770,696,17148,-1824,1316,-880,91,-136
4543,855,794,981,768,692,17088,-1764,1132,-918,87,-127
4546,859,791,978,766,694,17144,-1848,1148,-902,74,-120
4549,853,793,979,768,691,17124,-1808,1184,-934,83,-122
4552,854,793,983,767,693,17088,-1792,1204,-934,74,-116
4555,852,791,982,763,695,17108,-1916,1224,-956,75,-113
4558,853,787,986,762,693,17184,-1736,1304,-931,83,-106
4561,850,789,987,763,696,17144,-1768,1332,-925,48,-117
4564,854,789,981,763,693,17232,-1736,1300,-912,60,-110
4567,849,792,985,765,693,17192,-1780,1164,-914,59,-119
4570,857,785,983,763,699,17140,-1776,1224,-932,54,-102
4573,851,783,980,763,695,17040,-1736,1212,-943,41,-124
4576,853,787,986,764,695,17268,-1684,1224,-903,82,-114
4579,851,784,987,757,693,17160,-1740,1284,-916,68,-123
4582,855,783,985,757,690,17088,-1576,1496,-909,87,-123
4585,851,784,988,762,695,17168,-1712,1328,-932,37,-115
4588,853,786,985,759,693,17088,-1644,1404,-914,78,-106
4591,854,785,981,761,693,17092,-1616,1356,-920,42,-128
4594,850,790,985,762,691,17088,-1652,1272,-884,54,-137
4597,851,783,982,763,692,17240,-1724,1212,-895,81,-114
4600,848,784,981,763,695,17156,-1728,1232,-899,75,-84
4603,850,783,976,767,694,17196,-1588,1264,-916,42,-149
4606,848,783,979,765,694,17140,-1764,1248,-926,48,-116
4609,848,784,979,764,694,17216,-1712,1228,-943,40,-123
4612,841,786,982,753,698,17188,-1796,1188,-966,68,-135
4615,862,785,980,764,694,17140,-1652,1212,-979,51,-100
4618,848,783,985,762,693,17152,-1656,1344,-1007,56,-136
4621,842,782,983,765,694,17176,-1724,1252,-1003,65,-125
4624,850,783,982,765,699,17096,-1784,1148,-1017,52,-135
4627,849,783,982,765,693,17112,-1716,1196,-1005,106,-142
4630,848,784,978,766,695,17244,-1612,1164,-1007,91,-109
4633,854,786,989,769,693,17028,-1644,1280,-1026,114,-147
4636,850,791,982,767,691,17072,-1800,1268,-1043,108,-127
4639,848,797,984,768,693,17180,-1664,1404,-1068,123,-144
4642,848,800,978,768,690,17192,-1596,1224,-1072,124,-124
4645,849,797,980,765,695,17236,-1592,1248,-1124,125,-163
4648,851,797,983,768,694,17128,-1664,1192,-1109,124,-145
4651,848,794,983,769,691,17136,-1604,1372,-1179,85,-133
4654,848,793,982,773,690,17120,-1708,1468,-1167,94,-145
4657,848,795,981,770,691,17076,-1668,1324,-1228,97,-155
4660,849,797,982,770,692,17044,-1656,1424,-1199,106,-183
4663,851,800,976,768,693,17084,-1732,1272,-1174,128,-175
4666,849,799,978,771,688,17280,-1704,1356,-1164,136,-175
4669,848,798,975,769,689,17148,-1732,1336,-1142,134,-193
4672,848,813,979,765,693,17208,-1712,1128,-1089,157,-185
4675,847,795,981,766,690,17240,-1660,1136,-1104,159,-192
4678,848,796,982,766,695,17080,-1776,1216,-1085,146,-191
4681,849,797,982,762,690,17112,-1776,1120,-1089,133,-202
4684,849,794,982,766,690,17064,-1756,1024,-1110,143,-194
4687,853,788,981,767,689,16888,-1756,1228,-1091,130,-230
4690,853,791,976,757,691,17196,-1772,1092,-1096,106,-226
4693,851,789,996,767,689,17092,-1792,1248,-1078,121,-246
4696,853,791,977,767,690,16956,-1752,1192,-1086,101,-218
4699,852,784,978,762,693,17072,-1804,1092,-1099,99,-241
4702,861,787,978,759,690,17120,-1748,1216,-1086,97,-238
4705,856,784,976,755,691,17052,-1752,1208,-1125,61,-239
4708,858,789,979,753,693,17176,-1736,1288,-1174,65,-242
4711,854,789,981,755,688,17224,-1748,1236,-1157,81,-209
4714,857,795,981,755,689,17088,-1712,1292,-1144,98,-233
4717,855,787,983,762,691,17144,-1608,1304,-1154,104,-222
4720,848,792,987,758,698,17068,-1636,1208,-1182,122,-219
4723,849,793,981,759,698,17020,-1532,1248,-1168,107,-223
4726,848,796,980,755,695,17068,-1592,1264,-1169,94,-226
4729,840,799,979,758,694,17204,-1612,1204,-1165,134,-226
4732,848,794,982,759,694,17148,-1636,1160,-1180,131,-229
4735,846,794,979,761,694,17164,-1576,1256,-1152,159,-221
4738,844,795,978,760,693,17204,-1488,1160,-1196,169,-254
4741,846,791,980,762,697,17188,-1576,1176,-1225,218,-246
4744,847,789,977,757,694,17188,-1588,1100,-1292,238,-225
4747,848,791,977,759,695,17000,-1532,1040,-1346,260,-238
4750,848,791,976,755,698,17148,-1500,944,-1375,302,-252
4753,848,793,977,762,701,17116,-1420,1240,-1417,321,-250
4756,849,784,979,762,694,17212,-1552,1072,-1471,294,-272
4759,841,814,978,762,690,17120,-1624,896,-1482,287,-246
4762,854,794,981,761,694,17124,-1572,972,-1508,328,-291
4765,851,796,978,762,693,17216,-1600,1124,-1448,289,-217
4768,853,788,981,758,699,17116,-1580,1212,-1538,310,-268
4771,850,790,981,759,702,17164,-1484,1080,-1605,228,-304
4774,848,790,977,761,694,17016,-1760,1332,-1586,254,-329
4777,854,785,979,755,693,17072,-1692,1216,-1580,188,-318
4780,852,786,985,768,694,17040,-1780,1124,-1634,217,-336
4783,875,787,979,767,693,17168,-1684,1312,-1666,250,-317
4786,854,789,979,765,695,17204,-1732,1176,-1656,260,-324
4789,858,790,979,768,693,17172,-1708,1156,-1693,274,-336
4792,855,791,978,765,694,17220,-1728,1172,-1687,253,-346
4795,864,789,982,765,699,17224,-1796,1360,-1695,226,-324
4798,855,793,979,771,693,17120,-1796,1240,-1677,246,-333
4801,853,785,980,769,699,17212,-1696,1412,-1648,235,-359
4804,854,789,978,769,693,17196,-1812,1164,-1599,251,-364
4807,862,790,982,769,693,17148,-1860,1308,-1552,254,-376
4810,851,790,976,773,697,17184,-1840,1324,-1489,244,-362
4813,850,788,979,770,699,17144,-1760,1320,-1464,243,-379
4816,853,791,981,769,700,17184,-1852,1316,-1421,269,-382
4819,849,795,980,771,698,17148,-2000,1228,-1354,312,-395
4822,849,795,976,773,694,17288,-1936,1088,-1335,302,-405
4825,850,790,985,770,699,17152,-1996,1112,-1306,284,-398
4828,845,790,982,768,693,17204,-2004,1088,-1274,261,-398
4831,850,790,980,777,699,17148,-1916,1196,-1279,296,-396
4834,850,794,979,775,698,17148,-2084,1196,-1255,277,-417
4837,849,794,977,777,691,17188,-1924,1028,-1229,289,-402
4840,853,791,976,775,697,17172,-2124,1152,-1249,241,-426
4843,853,794,977,769,695,17196,-2100,1348,-1219,234,-416
4846,849,795,978,779,699,17080,-2148,1488,-1212,212,-431
4849,848,798,978,775,694,16984,-2020,1348,-1189,212,-449
4852,848,798,977,772,692,17064,-2060,1328,-1173,205,-437
4855,845,803,977,774,695,17104,-2160,1492,-1163,177,-440
4858,845,800,983,769,698,17056,-2036,1368,-1086,177,-426
4861,839,800,984,768,695,17056,-2044,1368,-1082,207,-406
4864,846,797,981,770,698,17088,-2024,1240,-1061,242,-420
4867,846,797,981,770,695,17060,-2016,1152,-1015,225,-378
4870,846,797,987,771,699,17104,-2004,1244,-1001,244,-383
4873,845,794,982,774,697,17088,-1988,1360,-968,257,-388
4876,846,791,979,775,699,17096,-2020,1176,-947,267,-401
4879,848,791,986,784,695,17188,-2028,1148,-960,275,-420
4882,848,794,987,784,699,17168,-1880,1232,-910,258,-424
4885,848,795,985,782,695,17108,-1916,1132,-888,238,-406
4888,847,796,982,781,699,17156,-1916,1164,-833,227,-402
4891,848,797,983,779,694,17232,-1892,1124,-810,230,-405
4894,847,795,990,777,692,17080,-1980,1128,-772,205,-450
4897,848,794,985,777,695,17068,-2000,1096,-791,189,-419
4900,848,790,983,769,695,17104,-1880,1176,-767,198,-403
4903,848,792,991,768,694,17132,-2060,1140,-750,180,-426
4906,847,795,986,773,693,17076,-2020,1196,-793,132,-425
4909,849,787,989,766,698,17140,-1984,1168,-810,158,-434
4912,848,787,987,770,699,17120,-1920,1188,-818,144,-428
4915,848,789,986,772,695,17064,-1888,1176,-840,150,-436
4918,849,787,987,770,700,17064,-1808,1312,-818,158,-442
4921,854,779,983,775,698,17092,-1896,1304,-808,143,-444
4924,854,784,986,771,693,17052,-1868,1308,-840,125,-446
4927,853,784,987,772,697,17028,-1880,1188,-852,113,-461
4930,851,783,983,772,700,17156,-1908,1312,-869,64,-474
4933,852,783,982,777,700,17128,-1888,1376,-913,79,-475
4936,852,783,983,779,695,17068,-1828,1496,-923,72,-481
4939,850,782,981,782,692,17088,-1888,1388,-963,121,-470
4942,855,784,982,785,698,17244,-1800,1180,-968,149,-458
4945,853,784,977,782,693,17288,-1880,1320,-1014,201,-449
4948,853,785,979,783,694,17104,-1868,1212,-1061,228,-462
4951,850,789,978,780,698,17188,-1856,1196,-1086,247,-455
4954,851,792,979,778,694,17192,-1820,1212,-1117,276,-473
4957,852,795,978,766,698,17192,-1772,1196,-1100,248,-492
4960,848,799,977,774,699,17156,-1836,1204,-1122,251,-508
4963,858,783,978,778,703,17032,-1836,1200,-1120,272,-521
4966,858,793,977,767,698,17052,-1820,1280,-1116,292,-539
4969,857,779,978,769,695,17156,-1864,1232,-1118,280,-549
4972,855,789,976,767,696,17032,-1872,1264,-1158,262,-531
4975,854,785,982,759,697,17056,-1884,1368,-1168,296,-510
4978,855,791,979,758,702,17088,-1848,1124,-1204,298,-532
4981,854,794,976,764,699,17208,-1880,1288,-1235,280,-548
4984,853,795,976,765,695,17200,-1868,1328,-1241,342,-549
4987,852,798,978,765,700,17176,-1896,1244,-1260,363,-566
4990,853,795,976,767,699,17140,-1804,1280,-1296,334,-558
4993,851,802,976,768,702,17084,-1940,1132,-1311,370,-596
4996,855,798,976,767,698,17184,-1920,1156,-1354,383,-619
4999,854,797,977,768,699,17312,-1952,1268,-1395,416,-606
5002,850,794,976,767,701,17192,-1988,1136,-1416,438,-649
5005,857,798,976,768,703,17144,-2048,1188,-1453,439,-628
5008,857,797,978,770,704,17136,-1928,1212,-1494,477,-654
5011,855,793,976,771,701,17080,-1932,1268,-1493,441,-665
5014,857,792,976,773,698,17116,-2000,1332,-1490,434,-692
5017,857,794,978,768,699,17092,-1912,1412,-1448,453,-747
5020,857,796,971,768,702,17140,-2100,1148,-1440,418,-746
5023,859,793,976,759,703,16992,-2080,1248,-1446,464,-801
5026,855,795,976,752,705,17180,-2060,1144,-1446,471,-793
5029,859,789,975,746,703,17192,-2084,1116,-1502,433,-846
5032,860,789,976,742,704,17180,-2128,1040,-1569,450,-850
5035,858,787,976,735,704,17088,-2124,880,-1612,445,-869
5038,858,791,976,733,704,17132,-2112,1052,-1699,449,-907
5041,861,814,980,725,704,17140,-2040,1176,-1747,434,-943
5044,862,797,976,722,704,17116,-2232,1096,-1814,452,-962
5047,864,793,978,721,701,16972,-2184,1064,-1862,462,-978
5050,862,788,982,713,705,17128,-2264,876,-1897,423,-1025
5053,861,790,976,703,705,16956,-2132,1124,-1915,430,-1018
5056,861,791,977,691,704,16920,-2164,1080,-1970,455,-1071
5059,863,794,979,687,704,17052,-2136,948,-2013,469,-1068
5062,865,798,976,679,705,16916,-2136,1012,-2074,460,-1051
5065,862,805,978,677,705,16932,-2240,1044,-2122,455,-1046
5068,869,807,979,676,704,16880,-2184,1144,-2125,482,-987
5071,869,805,977,675,706,16832,-2196,1124,-2158,509,-956
5074,873,805,983,681,706,16880,-2140,1188,-2148,486,-926
5077,867,801,975,678,704,16876,-2128,1156,-2162,474,-892
5080,874,816,981,684,709,16904,-2284,1144,-2052,450,-837
5083,865,813,986,688,703,16776,-2224,1280,-2009,412,-800
5086,873,821,979,687,703,16820,-2268,1352,-1986,401,-763
5089,866,821,981,689,705,16836,-2408,1372,-1897,325,-734
5092,864,832,983,691,705,16936,-2500,1388,-1803,339,-670
5095,862,830,983,703,706,16980,-2532,1436,-1694,320,-643
5098,865,832,982,703,709,16840,-2688,1288,-1556,325,-552
5101,861,833,981,707,708,16824,-2868,1328,-1430,258,-508
5104,862,829,982,716,708,16676,-2884,1360,-1286,335,-429
5107,859,822,981,719,706,16620,-3140,1340,-1214,276,-405
5110,858,821,976,721,707,16472,-3160,1168,-1094,162,-332
5113,866,817,971,729,709,16608,-3208,1264,-908,341,-256
5116,857,819,976,736,706,16408,-3308,1140,-829,214,-198
5119,859,816,979,741,705,16348,-3416,1140,-687,141,-162
5122,862,815,986,743,711,16176,-3464,1192,-520,54,-90
5125,858,813,983,743,710,16140,-3532,1116,-316,-2,24
5128,855,807,987,750,710,16188,-3460,1060,-165,-109,104
5131,855,805,994,747,709,15928,-3640,936,77,-139,216
5134,855,787,985,741,706,16020,-3564,860,164,-173,310
5137,854,784,986,741,706,16036,-3624,824,365,-175,407
5140,849,786,986,740,711,15940,-3712,844,510,-158,523
5143,854,771,994,741,709,16024,-3748,692,676,-240,636
5146,854,765,1001,736,711,15844,-3772,852,833,-271,766
5149,878,752,1006,731,711,16056,-3740,716,869,-337,918
5152,862,750,1008,723,714,15764,-3996,732,970,-441,961
5155,862,740,1012,717,710,15916,-4124,244,1321,-402,1222
5158,859,732,1015,717,711,15636,-4064,140,1137,-556,1244
5161,850,721,1021,713,709,15936,-4144,-304,1405,-719,1456
5164,846,717,1019,706,711,15448,-4140,260,1370,-889,1509
5167,838,709,1023,701,706,15624,-4040,-68,1453,-1001,1638
5170,832,702,1023,707,720,15348,-3984,-68,1424,-1212,1659
5173,822,701,1035,707,717,15248,-4028,-200,1591,-1322,1836
5176,816,688,1040,705,715,15260,-3716,-120,1586,-1625,1918
5179,815,694,1040,704,711,15476,-3704,-112,1723,-1762,2164
5182,814,682,1040,705,714,14988,-3880,168,1772,-2098,2268
5185,807,670,1037,704,713,14864,-3728,-92,1982,-2023,2442
5188,803,670,1037,704,713,15328,-3604,212,1898,-2164,2366
5191,797,678,1039,709,714,14744,-4080,-964,2682,-2562,3051
5194,799,674,1040,707,718,15200,-3632,224,2468,-1672,2887
5197,799,673,1041,711,715,14940,-3808,-364,2860,-2038,3223
5200,794,674,1050,702,705,14316,-3580,-436,2946,-2396,3393
5203,789,673,1055,695,713,14212,-3612,-272,3111,-2594,3577
5206,793,673,1057,688,710,14112,-3472,-456,3081,-2938,3675
5209,786,677,1067,686,710,14228,-3524,-608,3152,-3260,3834
5212,795,681,1071,682,715,13748,-3496,-148,3374,-3190,3973
5215,795,698,1072,674,709,14012,-3272,-416,3456,-3296,4191
5218,803,694,1079,672,710,13404,-3216,-8,3491,-3669,4389
5221,802,702,1079,660,713,12848,-3504,-100,3668,-4076,4548
5224,814,707,1072,661,707,12916,-3464,-72,3622,-4408,4766
5227,814,710,1072,653,706,12612,-3480,320,3837,-4643,4880
5230,809,719,1070,643,704,12100,-3496,120,3975,-4872,5027
5233,809,722,1059,639,709,11812,-3616,308,4172,-5121,5261
5236,816,727,1063,644,711,11604,-3776,420,4523,-5282,5522
5239,829,731,1061,641,707,11368,-3700,840,4587,-5495,5686
5242,847,739,1059,654,709,11176,-3716,1072,4892,-5688,6011
5245,833,753,1065,662,708,10376,-3736,1392,5040,-5775,6301
5248,785,778,1061,698,703,10416,-3672,1060,4805,-6364,6625
5251,757,784,1062,719,707,10548,-3476,1416,4800,-7754,6826
5254,733,777,1084,744,704,9812,-3252,332,3892,-9572,6964
5257,711,766,1108,757,704,12012,-2700,1168,3630,-9565,7283
5260,694,755,1141,785,705,11188,-2552,856,3382,-9277,7656
5263,675,735,1170,814,704,10112,-3376,1140,4057,-10657,8182
5266,654,714,1193,840,705,10436,-3032,1396,3819,-11311,8703
5269,648,678,1200,878,704,13196,-2324,1416,3477,-10561,9211
5272,683,659,1201,912,707,13492,-2628,2484,2846,-10037,9498
5275,707,623,1206,938,723,14416,-2280,2256,1729,-13006,9664
5278,724,588,1195,954,737,14652,-3784,1208,2334,-14132,10730
5281,743,576,1175,993,747,15980,-4156,1896,3167,-15202,11930
5284,780,555,1163,1008,750,18500,-2760,1204,478,-13621,12257
5287,786,563,1165,1001,751,22684,-3384,528,532,-10885,13210
5290,775,586,1152,973,763,23540,-3004,-432,668,-9530,14200
5293,730,619,1157,957,859,24336,-3240,-660,1517,-9956,15072
5296,669,670,1146,961,915,26560,-1824,520,-431,-6834,14454
5299,566,732,1147,979,957,29180,-1128,2232,-1619,-4443,13348
5302,505,822,1166,998,969,28332,-2680,4360,362,-7282,12623
5305,484,896,1173,1035,986,28972,-488,3148,1125,-7436,12614
5308,484,934,1161,1054,1013,29588,-2920,7284,4908,-7053,11200
5311,497,929,1117,1049,1017,32767,-1168,3792,7855,-1576,10296
5314,610,866,1090,1014,1063,32767,-1152,-248,10235,468,9299
5317,629,787,1071,961,1133,32236,-1464,-2524,11068,565,7549
5320,721,719,1083,875,1156,32767,456,-1672,10819,2724,6125
5323,880,656,1090,774,1152,32767,1624,-1416,9660,192,4806
5326,938,607,1091,700,1163,32767,2612,952,7291,2210,3245
5329,959,602,1072,634,1223,32767,4956,2452,4936,2972,1592
5332,971,624,1071,592,1230,32767,7352,4124,2795,4571,202
5335,1013,695,1071,597,1226,32767,9380,5212,1162,6586,-1150
5338,980,767,1053,624,1210,32767,11272,5256,1144,6770,-2175
5341,975,833,1033,624,1184,32472,11036,4716,1604,5892,-2952
5344,961,857,1000,581,1166,29904,9508,3288,3227,3726,-3681
5347,1008,875,967,511,1179,31836,9424,2932,2931,4843,-4463
5350,1067,869,925,464,1159,32767,8980,1912,2581,5558,-4705
5353,1099,849,897,446,1146,32767,8780,1268,535,5142,-5178
5356,1125,895,878,447,1126,32767,5928,-2112,2794,2395,-4775
5359,1095,942,858,450,1105,32767,6424,1768,268,5209,-5366
5362,1051,975,835,464,1089,32767,4936,-664,-38,4342,-5825
5365,979,990,816,481,1075,32767,3928,-3940,-1263,6715,-6518
5368,930,987,802,491,1059,32767,3808,-1832,-2952,7745,-7772
5371,900,975,790,496,1046,32767,3176,-2692,-4975,6435,-8635
5374,897,950,786,496,1023,32767,3448,-1860,-7672,5952,-9441
5377,893,916,779,494,1010,32767,1544,-2488,-8913,4737,-9798
5380,912,886,777,487,1001,32767,372,-2728,-10838,3285,-10656
5383,901,887,775,490,988,32767,-760,-2544,-12426,3213,-11307
5386,937,880,769,491,976,32767,-2272,-2448,-13652,2687,-11841
5389,952,864,768,500,963,32767,-4872,-3680,-14107,1405,-11709
5654,717,822,985,448,958,32767,-100,-24664,3166,5995,13487
5658,821,578,912,452,946,32767,-3496,-18232,-3937,4319,11440
5661,879,482,912,474,946,32767,-4356,-5392,-8564,3294,7592
5664,929,446,963,624,913,32767,-5516,3752,-9827,5703,3302
5667,983,454,1045,934,909,29720,-5416,4720,-10479,9518,1035
5670,1059,464,1086,1062,905,22096,-2820,3956,-9839,11080,78
5673,1117,511,1083,990,894,18180,-1216,-1812,-11974,5191,-2124
5676,1151,643,1054,877,891,16756,-4896,2516,-7524,4558,-2250
5679,1142,828,995,751,880,15964,-6096,2320,-7308,-1983,-2483
5682,1131,1043,944,617,879,24480,-9736,-272,-10038,-12628,-1544
5685,1107,1125,941,528,880,32767,-16292,-7240,-12513,-15353,773
5688,1005,1136,973,454,874,32767,-23744,-16244,-12758,-13294,3226
5691,845,1127,1063,441,870,32767,-27380,-18976,-15821,-8765,5163
5694,670,1047,1152,457,864,32767,-30580,-16208,-20929,-4984,5383
5697,528,710,1225,454,859,32767,-32768,-5984,-21597,-1472,4732
5700,465,447,1231,442,853,32767,-32768,2408,-18614,-2836,4456
5703,638,439,1177,442,866,27968,-31732,10876,-11208,-10073,4887
5706,658,448,1071,446,860,17572,-22588,9532,-7455,-15548,5269
5709,491,473,946,494,859,14076,-19788,11160,-3404,-20166,4709
5712,473,483,858,674,890,19420,-15460,12372,2257,-21596,6732
5715,470,482,827,978,895,19440,-12140,14068,3153,-21016,8499
5718,470,467,822,1110,887,17516,-10416,14960,5577,-19290,8557
5721,479,454,847,1100,882,21236,-6684,16988,6984,-16951,8161
5724,466,687,883,1072,880,26508,-4932,11040,9081,-16238,8005
5727,467,1156,879,979,867,30140,-3600,11580,11590,-17045,7757
5730,493,1163,867,803,865,32767,864,7028,12281,-17863,6683
5733,550,1167,831,499,855,32767,2240,3916,15112,-14331,6555
5736,743,1136,812,432,851,32767,5984,1172,13941,-8619,4986
5739,873,1077,803,440,852,32767,6792,-100,13920,-5538,3210
5742,899,811,809,439,853,32767,7964,-872,12357,-4255,988
5745,1040,448,832,575,861,32767,7804,376,13611,-979,-13
5748,598,437,835,743,862,29084,7524,1164,15221,-284,-1219
5751,997,438,798,896,867,24680,7540,768,15517,851,-3061
5754,970,443,851,954,878,23184,6960,1112,15500,3070,-4688
5757,1088,443,881,935,883,21740,7416,-256,14504,3703,-6298
5760,880,443,842,1057,886,20056,7504,-972,13605,2158,-7601
5763,1119,462,826,1019,880,19220,8012,-1156,12619,743,-8821
5766,1136,485,821,1054,880,19708,10460,-1376,9629,3124,-10267
5769,1131,464,835,1058,873,22516,11472,4,7608,9948,-11040
5772,1100,463,846,1018,865,24080,11512,-68,7449,15955,-10334
5775,1123,464,863,976,859,21124,12076,-1068,5355,14904,-10876
5778,1105,470,882,769,852,19352,11628,-1564,5995,9622,-10593
5781,681,501,910,803,848,17252,10644,-1756,4648,2871,-9756
5784,486,558,855,628,848,15296,8188,-2324,2675,926,-9662
5787,475,648,851,601,834,17580,9764,-1080,-8574,2596,-10846
5790,464,691,841,583,834,20720,5880,-4932,-6672,6742,-9593
5793,461,741,823,608,829,19072,5724,-1848,-7648,8544,-9333
5796,463,773,806,603,828,16108,4444,-500,-9445,8359,-9541
5799,457,787,797,543,838,16232,3052,-3240,-10404,10044,-8395
5802,464,816,793,498,840,15836,3644,-2836,-14795,11684,-8275
5805,464,812,793,471,833,15888,1544,-3044,-16933,14062,-8548
5808,464,823,781,469,830,13620,-800,-2496,-18694,11755,-8436
5811,463,847,785,464,827,10920,-1428,-1780,-21812,8399,-8990
5814,464,865,783,464,822,9900,-2028,-2452,-23387,3481,-9123
5817,465,912,784,468,819,8872,-3924,-268,-23144,2284,-8249
5820,466,940,784,473,816,9084,-5548,1692,-21581,3567,-7396
5823,461,966,784,474,814,9564,-6304,2760,-20310,5630,-7147
5826,465,989,775,479,815,9184,-6724,2820,-19176,1326,-6470
5829,475,990,783,483,814,8416,-7764,1364,-17713,1551,-5512
5832,477,999,782,470,811,9344,-9164,7216,-15524,-4358,-4622
5835,476,994,784,496,798,9164,-9648,740,-15539,-5792,-5206
5838,493,1008,780,511,801,12848,-10580,2288,-13505,-2298,-5559
5841,481,996,783,511,794,15276,-10844,5844,-11399,5774,-6580
5844,475,978,783,511,787,14576,-12000,4896,-10158,5794,-6738
5847,470,978,782,526,796,14968,-12300,6180,-9611,2091,-6980
5850,464,935,784,541,787,14316,-12480,4296,-8084,7933,-7491
5853,474,937,784,558,789,12692,-14704,6140,-3087,7542,-5826
5856,477,954,786,511,784,10212,-14380,3948,-2931,6024,-6152
5859,484,922,786,511,779,11000,-14904,5612,-872,-1408,-4751
5862,493,930,788,509,783,12768,-13788,3196,-510,2830,-5218
5865,487,944,786,501,781,15360,-13688,3352,2349,6676,-3731
5868,483,944,795,490,779,14392,-11952,3360,2563,8537,-3142
5871,490,960,800,480,779,15040,-11248,2296,3387,10876,-3025
5874,487,962,801,466,784,13780,-10268,408,5377,10245,-1991
5877,495,947,807,464,784,12876,-8384,1196,4679,9262,-2011
5880,490,913,806,464,779,12796,-8532,588,6353,9209,-1785
5883,485,894,815,465,779,15364,-5988,-1724,5784,7793,-1080
5886,486,880,819,461,782,13956,-5220,-2900,4860,5957,-827
5889,487,841,826,464,778,15080,-5900,-1436,6619,7105,-39
5892,482,791,831,464,779,15388,-2520,-2236,2618,8887,-1456
5895,487,769,843,466,781,16336,-2180,-2796,3869,8470,-545
5898,491,761,854,483,779,13348,-1840,-2592,3940,5186,-288
5901,486,782,852,503,782,13844,-1412,-3828,3981,2325,128
5904,496,798,862,557,777,15720,-344,-2152,4061,2121,466
5907,497,784,877,590,774,14964,620,-1920,3580,3353,559
5910,494,784,880,624,782,13564,280,-2224,3310,493,245
5913,491,784,885,663,778,15532,1732,-1476,3337,-1,504
5916,490,806,880,714,777,16880,2892,-692,3151,3277,763
5919,491,815,873,757,781,17848,3680,-980,2271,4264,591
5922,490,835,878,794,782,17032,4168,-1052,1196,3553,455
5925,490,850,874,835,784,18256,4916,-892,-170,2549,576
5928,485,845,875,880,779,16352,5140,348,-1492,1395,215
5931,487,842,875,930,779,17432,5792,712,-2873,2567,-78
5934,481,850,874,978,784,17124,5396,1040,-3941,3039,-268
5937,490,880,877,977,779,16372,5580,652,-5706,627,-559
5940,485,909,877,1007,781,17152,4664,716,-6411,-991,-354
5943,487,916,879,1019,774,17464,4496,1232,-7240,-2027,-177
5946,496,943,879,1008,776,18408,4548,764,-8753,-1920,-151
5949,528,939,887,998,777,18812,3280,1040,-9339,-1753,-3
5952,486,973,899,993,778,17880,2672,940,-10744,-2736,-243
5955,492,928,909,986,781,18612,1796,504,-11735,-2027,-314
5958,496,915,912,971,779,17864,-1040,1356,-10189,-1789,875
5961,501,927,918,951,773,16844,-420,1384,-11431,-2120,663
5964,500,880,939,924,781,15676,-2916,296,-10274,-5558,1116
5967,497,865,955,883,782,16316,-2980,412,-11798,-5901,952
5970,497,881,967,851,779,16592,-4080,1584,-11475,-5710,897
5973,502,901,974,837,779,16212,-5756,644,-9439,-7177,1486
5976,486,907,976,819,783,17444,-5044,1732,-9124,-5347,1989
5979,496,891,976,794,780,16940,-5104,1504,-9464,-4871,1702
5982,496,870,971,784,790,17144,-6384,1524,-7847,-5199,2039
5985,492,832,964,774,785,17404,-6180,884,-7270,-4513,2319
5988,479,816,960,766,784,17796,-6044,1436,-6691,-3535,2450
5991,485,811,953,769,784,18052,-6252,1536,-5768,-2680,2779
5994,484,838,946,781,783,17840,-6448,916,-5583,-3071,2849
5997,484,851,947,785,784,17152,-7276,532,-4226,-3589,2863
6000,485,864,946,785,783,17928,-6088,1160,-4891,-2767,2215
6003,485,870,938,787,783,18352,-6424,280,-4083,-1852,2381
6006,486,865,924,791,780,18388,-6052,604,-4335,-635,2029
6009,482,862,907,787,781,18580,-6400,-84,-4153,212,1845
6012,495,850,899,782,780,18364,-6284,192,-4733,743,1274
6015,494,839,893,768,778,18628,-6924,-196,-4264,1188,1181
6018,495,823,890,756,775,18152,-6904,192,-4103,1911,881
6021,497,823,894,745,772,17948,-6852,404,-3918,2263,365
6024,511,793,889,733,774,17580,-6928,580,-3335,2336,178
6027,508,787,885,707,778,17088,-7252,836,-2534,2262,13
6030,508,788,880,678,778,16876,-6640,1368,-2113,1896,-270
6033,511,789,880,650,783,16532,-6376,2340,-1469,1780,-416
6036,511,787,878,618,771,16528,-6120,2748,-879,495,-1155
6039,523,784,874,587,773,15940,-5980,2516,-38,-788,-1226
6042,523,773,871,566,780,16572,-5572,3120,1277,-605,-1094
6045,527,775,858,543,779,16976,-4968,2480,2133,-632,-1147
6048,532,784,861,530,779,16384,-4532,2864,2601,-1052,-1707
6051,528,771,855,511,774,16920,-3956,2408,3269,-1531,-1880
6054,534,781,851,511,775,17244,-3508,2780,4213,-1091,-1807
6057,549,753,850,511,773,17780,-2724,2500,4253,-345,-2179
6060,533,751,848,511,772,17300,-2984,2480,5271,170,-1976
6063,539,739,848,526,773,17208,-2364,2264,5199,-10,-2342
6066,542,723,849,528,770,16884,-2340,1724,5797,-27,-2349
6069,553,717,842,539,762,16884,-1892,1488,5755,71,-2454
6072,560,717,833,547,769,17004,-1852,2076,6247,761,-2482
6075,563,707,832,552,767,16592,-1592,1336,5936,612,-2681
6078,566,707,834,560,765,16844,-1224,1520,6050,784,-2619
6081,574,717,833,562,763,16596,-1484,1544,5973,768,-2717
6084,576,703,833,570,762,16500,-1676,1460,6081,398,-2580
6087,587,711,816,569,765,16376,-1672,1704,6541,626,-2270
6090,583,716,809,575,762,16592,-1380,1800,5982,930,-2332
6093,581,720,816,595,764,16632,-1544,1376,6071,398,-2044
6096,579,705,820,576,765,16340,-1344,1196,5694,276,-2036
6099,578,725,836,564,773,17268,-1336,1320,5561,878,-1975
6102,576,749,849,589,773,17076,-1112,980,5146,369,-2035
6105,576,762,848,634,774,17132,-1048,1484,4842,-145,-2057
6108,563,770,852,669,774,17140,-892,1348,4822,-794,-1768
6111,560,777,848,684,773,17460,-816,1340,4744,-613,-1604
6114,558,785,835,687,773,17832,-464,1656,4634,-243,-1414
6117,562,784,837,686,768,17428,-408,1364,4416,-125,-1421
6120,544,791,846,679,773,18036,-428,1612,4115,329,-1424
6123,531,808,845,688,771,17716,-276,1316,3598,297,-1478
6126,530,815,851,686,773,17908,-488,1504,3263,639,-1460
6129,543,813,853,675,766,18204,-228,1504,2578,1248,-1494
6132,531,818,848,688,763,17760,-480,1936,2263,1631,-1469
6135,528,816,861,694,769,17716,-548,1628,1879,1265,-1347
6138,530,816,861,706,769,17524,-820,1940,1621,1421,-1227
6141,532,810,864,729,766,17516,-644,1952,1084,1547,-1251
6144,531,811,862,746,766,17252,-712,1656,639,920,-1221
6147,528,823,855,758,763,17184,-724,1688,334,524,-1017
6150,528,837,863,762,762,17428,-592,1656,-212,90,-954
6153,528,837,865,761,764,16956,-1168,1836,-234,-352,-667
6156,527,838,867,765,763,17024,-1176,1820,-492,-605,-570
6159,524,835,868,774,757,17200,-1032,1764,-962,-519,-537
6162,525,839,869,783,762,17372,-896,1880,-1258,-518,-361
6165,511,843,869,787,761,17276,-1004,1420,-1483,-301,-278
6168,528,847,863,800,757,17488,-1044,2024,-1727,234,-115
6171,528,845,865,786,758,16780,-1080,1148,-2020,-473,-36
6174,528,852,874,787,762,17176,-1136,1624,-2028,244,-24
6177,523,847,875,788,758,17556,-1092,1392,-2343,1186,39
6180,511,837,879,799,760,17288,-920,1004,-2689,1037,81
6183,511,832,874,794,759,16944,-1116,1088,-2770,858,73
6186,510,816,893,790,765,17128,-1064,900,-2851,1050,65
6189,511,806,884,781,759,17000,-1256,748,-2842,986,164
6192,496,784,892,769,763,16936,-1468,828,-2689,793,238
6195,511,782,886,755,759,16824,-1372,768,-2914,787,161
6198,511,773,906,749,759,16804,-1396,1108,-2962,1021,85
6201,526,759,903,734,757,16532,-1464,1160,-3024,1120,70
6204,528,754,900,727,762,16540,-1656,1356,-2966,620,119
6207,533,763,891,720,761,16320,-1676,1348,-3090,291,157
6210,535,752,909,706,766,16144,-1840,1564,-3035,80,159
6213,546,752,911,703,774,16336,-1876,1936,-3053,261,152
6216,542,773,912,725,770,16064,-1956,1664,-3054,-96,111
6219,542,793,910,705,772,15944,-2196,1520,-2904,-720,208
6222,550,803,911,709,783,16376,-2308,1216,-2832,-734,225
6225,550,801,909,712,779,16420,-2488,1032,-2686,-785,341
6228,549,799,901,710,781,16596,-2512,1076,-2732,-734,274
6231,541,795,900,704,785,16884,-2680,928,-2703,-574,350
6234,541,797,893,704,786,16828,-2836,732,-2663,-495,342
6237,543,798,887,709,789,17036,-2876,600,-2706,-728,329
6240,543,815,889,717,784,17036,-3008,564,-2667,-627,330
6243,545,816,880,720,784,16784,-2932,376,-2674,-710,294
6246,546,833,880,704,783,16844,-3020,728,-2523,-596,218
6249,545,836,871,695,783,16656,-3092,996,-2356,-718,121
6252,549,833,875,691,782,16452,-3192,1076,-2134,-1107,71
6255,551,827,870,683,781,16772,-3060,1468,-1883,-968,-59
6258,556,826,868,676,780,16848,-3048,1604,-1616,-937,-115
6261,556,836,866,678,781,16868,-2980,1744,-1394,-1044,-188
6264,561,812,862,679,774,16800,-2908,1684,-1180,-1225,-273
6267,563,797,865,683,774,17088,-2936,1640,-983,-1132,-353
6270,563,784,863,682,775,17272,-2716,1676,-821,-1117,-370
6273,562,777,863,679,772,17468,-2544,1700,-675,-1037,-409
6276,560,772,861,681,775,17468,-2432,1684,-589,-832,-444
6279,560,768,863,681,774,17496,-2248,1704,-463,-755,-464
6282,559,762,863,678,782,17360,-2180,1660,-265,-710,-476
6285,564,771,857,684,780,17516,-2084,1620,-208,-550,-490
6288,554,768,863,684,774,17336,-1964,1564,-34,-501,-552
6291,555,770,863,685,773,17428,-1912,1452,62,-417,-563
6294,555,764,863,689,770,17540,-2004,1512,163,-238,-517
6297,551,765,861,699,773,17328,-2036,1496,158,-273,-568
6300,551,755,857,706,769,17660,-2112,1668,168,-164,-504
6303,545,762,864,715,770,17572,-2160,1632,119,-73,-480
6306,543,763,861,719,771,17688,-2124,1756,76,200,-487
6309,543,768,853,720,769,17600,-2056,1788,123,240,-446
6312,542,774,859,725,767,17556,-2028,1584,74,417,-470
6315,544,782,857,724,767,17568,-1980,1400,99,466,-492
6318,541,777,854,726,758,17356,-1960,1136,193,477,-506
6321,539,773,854,723,763,17512,-1864,1208,251,580,-545
6324,540,782,861,718,765,17328,-1820,1004,333,567,-555
6327,544,789,860,716,758,17256,-1884,1024,414,437,-584
6330,560,802,861,706,766,17252,-1844,752,432,328,-631
6333,550,816,859,704,759,17380,-1808,1020,467,313,-655
6336,549,813,859,693,755,17344,-1852,1060,514,373,-663
6339,550,812,862,691,757,17220,-1676,1044,541,349,-683
6342,548,803,856,683,754,17212,-1732,1060,531,272,-687
6345,546,804,854,673,758,17220,-1620,860,464,238,-701
6348,548,800,855,669,754,17256,-1552,1008,411,207,-677
6351,547,806,859,669,751,17080,-1512,880,353,212,-661
6354,550,805,860,673,763,17096,-1376,992,335,112,-581
6357,549,789,870,671,759,17076,-1328,1188,265,128,-556
6360,543,790,861,680,754,17124,-1212,940,238,131,-493
6363,541,789,866,688,755,17148,-1168,960,151,152,-441
6366,546,785,866,690,756,17088,-1076,972,48,55,-398
6369,545,784,857,689,759,17060,-1172,620,-40,-55,-355
6372,544,787,865,689,759,17124,-1144,720,-159,-154,-332
6375,547,791,866,683,757,17100,-1068,880,-240,-80,-311
6378,549,796,864,677,752,17084,-1104,760,-209,-82,-293
6381,553,785,871,671,751,16952,-1180,776,-248,-104,-308
6384,555,785,871,662,755,16944,-1084,728,-191,-105,-315
6387,555,779,865,656,752,16860,-1244,800,-179,-143,-290
6390,559,762,865,650,753,16792,-1436,1104,-184,-232,-322
6393,551,752,867,653,755,16740,-1376,1028,-203,-322,-322
6396,560,737,865,656,756,16796,-1428,996,-305,-440,-342
6399,555,720,869,655,755,16884,-1284,892,-379,-604,-345
6402,553,713,894,651,755,16872,-1312,772,-474,-644,-342
6405,548,706,877,640,756,17040,-1368,656,-519,-721,-368
6408,554,699,874,639,754,17008,-1480,524,-593,-734,-362
6411,553,693,879,631,752,17016,-1320,684,-647,-676,-418
6414,548,694,880,621,755,16980,-1512,548,-636,-621,-381
6417,544,705,875,626,758,17060,-1596,644,-702,-617,-405
6420,566,715,877,630,754,16844,-1688,828,-735,-603,-422
6423,560,722,880,624,754,16872,-1684,876,-725,-634,-441
6426,547,720,873,631,754,16884,-1680,788,-751,-628,-406
6429,553,717,873,630,752,17024,-1712,824,-820,-620,-391
6432,550,723,880,635,753,17032,-1724,1096,-904,-527,-357
6435,547,731,871,640,753,17064,-1608,1044,-1040,-426,-306
6438,550,730,876,640,754,17008,-1620,976,-1140,-317,-255
6441,544,742,874,650,753,16952,-1808,1132,-1227,-262,-225
6444,547,746,869,648,753,17044,-1700,1060,-1291,-216,-151
6447,550,742,871,649,752,16932,-1764,1096,-1348,-182,-110
6450,549,751,868,656,754,16896,-1796,1244,-1370,-216,-79
6453,552,750,870,661,755,17052,-1836,1216,-1406,-191,-3
6456,541,755,868,665,752,17100,-1948,1072,-1447,-173,38
6459,545,767,871,670,751,17240,-1924,1012,-1465,-99,82
6462,552,778,875,669,752,17160,-1916,1164,-1492,-86,112
6465,547,783,877,660,754,17092,-1904,996,-1445,13,134
6468,550,770,874,662,753,17148,-2000,880,-1412,63,165
6471,553,773,877,665,753,17156,-1924,964,-1338,96,166
6474,547,768,875,659,750,16992,-2056,972,-1287,87,154
6477,550,759,877,657,752,17040,-2036,1020,-1249,94,158
6480,547,751,880,671,751,17168,-2168,1000,-1247,130,162
6483,550,752,878,673,752,17068,-2136,1024,-1240,101,104
6486,553,750,880,656,752,16912,-2164,1032,-1275,73,90
6489,550,759,882,655,751,17120,-2032,916,-1262,112,102
6492,551,767,883,651,751,17108,-2076,964,-1278,112,107
6495,549,757,880,650,751,17040,-2100,852,-1258,125,96
6498,554,769,881,654,750,16960,-2020,944,-1191,119,92
6501,551,772,882,655,752,16964,-2092,1016,-1174,75,73
6504,554,774,885,650,749,17008,-2064,1032,-1089,61,58
6507,548,770,881,650,751,17072,-2008,972,-1050,43,43
6510,549,765,882,651,751,17104,-2076,680,-997,20,37
6513,554,749,873,656,751,17124,-2176,696,-977,-24,24
6516,550,727,878,655,750,17020,-2164,936,-968,-76,14
6519,548,713,902,652,751,17212,-2140,852,-964,-105,-42
6522,547,706,882,650,751,17028,-2176,796,-940,-110,-37
6525,548,710,881,650,750,17088,-2184,704,-977,-154,-57
6528,554,718,879,656,751,17092,-2264,708,-982,-175,-92
6531,548,719,876,656,751,17160,-2204,796,-956,-208,-105
6534,550,724,875,654,750,17128,-2348,888,-914,-223,-124
6537,544,725,873,656,747,17068,-2352,916,-858,-264,-130
6540,548,733,876,656,751,17008,-2332,1032,-804,-232,-143
6543,551,729,877,656,752,17080,-2396,984,-773,-267,-193
6546,547,728,878,643,748,17024,-2352,936,-733,-277,-188
6549,545,726,880,641,751,16964,-2256,824,-703,-274,-209
6552,545,721,882,640,742,17020,-2196,924,-653,-287,-222
6555,546,729,871,633,748,17212,-2252,888,-643,-284,-215
6558,543,720,881,629,750,17088,-2172,792,-599,-264,-213
6561,545,719,880,626,751,17168,-2120,964,-602,-228,-190
6564,549,723,879,624,752,17156,-2196,860,-559,-267,-198
6567,549,718,880,622,747,17000,-2176,1000,-484,-255,-169
6570,550,714,880,615,743,17028,-2144,1060,-380,-253,-154
6573,553,707,880,617,747,16956,-1996,1156,-270,-189,-125
6576,553,706,897,610,749,17076,-2120,1128,-154,-223,-112
6579,549,706,879,614,747,17132,-2128,1232,-34,-190,-113
6582,548,720,880,614,749,17052,-1988,1096,90,-177,-110
6585,554,719,882,621,746,17212,-1988,1152,158,-97,-93
6588,554,721,877,615,749,17192,-1980,940,235,-95,-120
6591,555,710,880,623,746,17088,-1876,1096,246,-79,-93
6594,555,720,879,624,745,17128,-1876,1196,250,-38,-88
6597,555,723,877,627,749,17192,-1860,1160,201,-49,-106
6600,554,723,879,631,744,17260,-1820,1092,141,-20,-78
6603,551,730,878,644,746,17304,-1944,828,103,-16,-84
6606,547,733,874,644,747,17212,-1772,828,34,-4,-67
6609,554,752,874,647,745,17240,-1740,748,-9,-25,-51
6612,551,756,873,644,751,17348,-1768,840,-33,-12,-48
6615,554,754,878,643,743,17260,-1780,880,-67,-10,-77
6618,550,767,873,640,749,17132,-1668,980,-65,-61,-72
6621,551,771,880,640,742,17200,-1668,1032,-91,-93,-107
6624,553,775,878,639,745,17240,-1764,784,-119,-93,-129
6627,548,787,880,638,746,17268,-1588,888,-143,-120,-163
6630,554,791,880,634,742,17180,-1636,1048,-150,-139,-170
6633,554,789,880,633,743,17184,-1588,980,-178,-154,-168
6636,549,784,880,635,749,17288,-1560,1100,-195,-201,-187
6639,552,775,881,631,739,17080,-1504,1140,-265,-161,-196
6642,552,767,880,635,742,17264,-1352,1024,-307,-137,-191
6645,550,765,878,633,742,17124,-1256,1088,-355,-171,-197
6648,557,759,881,636,739,17192,-1280,1160,-381,-154,-233
6651,558,758,880,633,745,17108,-1292,1280,-408,-175,-240
6654,550,752,880,633,746,17024,-1228,1368,-355,-194,-225
6657,560,752,880,630,741,17052,-1100,1288,-283,-253,-246
6660,562,739,880,629,743,17076,-1136,1260,-257,-307,-213
6663,560,736,880,637,739,17100,-1184,1120,-207,-370,-229
6666,566,732,880,639,745,17172,-1052,1016,-196,-314,-192
6669,567,721,881,640,739,17072,-1020,1196,-215,-231,-232
6672,565,718,881,645,740,17136,-1064,1176,-270,-310,-202
6675,565,707,881,640,741,17112,-1088,1076,-360,-239,-197
6678,560,712,879,645,742,17112,-1176,1060,-422,-222,-209
6681,552,720,880,649,743,17180,-1360,1100,-496,-232,-188
6684,559,725,878,657,747,17208,-1416,1224,-579,-316,-183
6687,560,736,875,656,740,17192,-1400,1392,-710,-369,-171
6690,557,742,875,660,743,17288,-1468,1272,-786,-380,-159
6693,559,747,880,659,746,17316,-1404,1272,-882,-396,-164
6696,560,751,879,666,743,17192,-1532,1248,-913,-418,-150
6699,560,752,880,645,745,17268,-1576,1236,-935,-384,-184
6702,561,753,883,654,747,17236,-1672,1296,-966,-350,-178
