Time,MMG1,MMG2,MMG3,MMG4,EMG,AccelX,AccelY,AccelZ,GyroX,GyroY,GyroZ
0,829,727,896,746,1782,16992,-2120,1164,-709,78,-128
4,833,725,891,749,1697,17108,-1956,1320,-737,76,-102
7,811,712,882,730,1607,17068,-2132,1192,-740,99,-84
10,815,723,880,725,1535,17012,-2140,1168,-797,45,-66
13,811,708,880,725,1472,17124,-2104,1212,-805,55,-115
16,813,718,885,721,1415,17044,-2220,1176,-856,8,-93
19,808,710,882,732,1357,17072,-2228,1412,-898,-12,-99
22,809,718,894,725,1295,17172,-2184,1448,-929,-23,-71
25,803,706,881,729,1242,17128,-2084,1448,-921,-58,-83
28,810,703,882,728,1189,17060,-2256,1352,-946,-41,-68
31,804,704,880,734,1139,16976,-2096,1384,-893,-38,-36
34,806,702,883,727,1095,17128,-2028,1388,-884,-4,-30
37,803,704,886,722,1054,17036,-2068,1404,-851,15,-58
40,802,697,880,729,1008,17036,-2040,1320,-812,49,-3
43,801,693,886,720,964,17164,-2024,1312,-800,63,-44
46,803,699,886,725,931,16976,-2064,1228,-801,58,-36
49,809,705,883,724,892,16936,-2156,1176,-844,91,-45
52,807,703,881,718,859,16948,-2112,1184,-891,67,-22
55,807,699,885,714,825,17032,-2164,976,-936,52,-23
58,813,699,892,714,795,17136,-2068,980,-989,30,-5
61,810,700,882,710,762,17032,-2092,1116,-1032,-10,-11
64,810,705,883,709,736,17044,-2128,1252,-1043,23,14
67,809,715,883,709,709,17012,-2132,1160,-1063,-2,-15
70,813,706,884,714,683,17076,-2156,1208,-1073,9,2
73,810,706,884,713,658,17036,-2084,1064,-1075,16,3
76,815,707,880,718,636,17164,-2192,1188,-1089,20,-4
79,814,710,885,720,618,17096,-2196,1300,-1065,18,-4
82,810,715,885,719,594,17060,-2196,1088,-1085,-4,24
85,802,716,885,719,576,17176,-2240,1052,-1109,30,15
88,813,714,881,721,560,17036,-2228,1248,-1112,-14,14
91,818,718,883,722,542,17072,-2204,1284,-1087,10,17
94,816,717,882,720,528,17068,-2208,1456,-1065,-3,-7
97,815,722,883,723,511,17004,-2140,1228,-1047,-12,-1
100,810,715,880,725,491,17128,-2152,1512,-996,36,16
103,811,714,880,709,479,17060,-2152,1428,-953,48,12
106,811,716,887,720,463,17044,-2108,1412,-903,27,12
109,807,710,879,721,453,17120,-2204,1248,-860,69,17
112,815,711,884,720,438,17052,-2196,1492,-872,47,-5
115,815,708,880,725,427,17096,-2208,1364,-892,41,19
118,812,708,880,720,413,17016,-2260,1300,-899,3,17
121,815,711,887,720,404,17128,-2244,1376,-920,-30,-21
124,812,707,882,725,393,17176,-2320,1388,-973,-74,12
127,810,707,888,722,383,17124,-2224,1316,-999,-88,5
130,811,711,883,724,375,17096,-2160,1428,-1013,-98,5
133,811,709,883,723,368,17100,-2232,1296,-1047,-85,13
136,814,709,882,727,356,17136,-2156,1408,-1029,-63,5
139,811,710,883,722,353,17032,-2272,1304,-1040,-36,39
142,816,714,884,718,343,17184,-2300,1208,-1059,-7,10
145,815,714,886,721,336,17220,-2308,1160,-1078,16,2
148,816,718,883,713,326,17028,-2240,1168,-1055,32,15
151,815,715,880,723,320,17032,-2236,1224,-1052,45,-31
154,813,714,885,722,316,16992,-2188,1028,-1074,57,-26
157,816,715,902,723,304,17052,-2356,1208,-1081,45,-29
160,816,716,880,720,305,17020,-2180,1096,-1089,51,-49
163,823,719,880,723,300,16984,-2264,1108,-1103,83,-48
166,816,720,882,720,299,17084,-2284,1056,-1111,54,-39
169,830,719,882,720,289,17008,-2276,1180,-1143,77,-49
172,815,720,880,729,286,17064,-2340,1164,-1144,58,-30
175,816,717,881,722,276,17140,-2304,1292,-1143,45,-51
178,817,719,881,722,272,17096,-2300,1012,-1116,43,-68
181,814,717,883,721,266,16996,-2284,1128,-1133,42,-53
184,814,718,879,721,261,17032,-2292,1296,-1110,30,-68
187,816,726,880,723,259,17024,-2276,1296,-1070,45,-49
190,816,720,882,721,256,17084,-2400,1176,-1086,75,-32
193,811,718,903,720,253,16888,-2368,1192,-1004,66,-34
196,811,718,880,717,247,17048,-2304,1284,-1024,59,-29
199,813,717,882,717,244,16968,-2384,1172,-996,3,-42
202,811,719,887,715,246,16956,-2356,1452,-963,-2,-43
205,816,717,883,714,238,17040,-2388,1384,-969,-47,-41
208,822,719,881,717,238,17172,-2348,1392,-979,-67,-25
211,810,714,880,720,234,17032,-2440,1504,-954,-38,-6
214,802,714,886,715,234,17164,-2448,1512,-959,-24,3
217,807,713,883,715,230,17052,-2340,1428,-955,-8,12
220,806,718,883,721,224,17060,-2288,1360,-944,-10,7
223,810,715,892,713,224,17008,-2320,1332,-945,6,29
226,809,713,883,711,222,17112,-2412,1260,-927,-13,12
229,807,713,884,717,221,16952,-2296,1232,-943,52,-10
232,804,710,885,714,217,17120,-2368,1328,-947,-41,5
235,813,714,883,718,212,17048,-2252,1372,-957,-30,1
238,811,711,882,717,210,17012,-2288,1332,-972,-87,4
241,806,695,883,720,207,17056,-2324,1360,-993,-40,23
244,811,709,875,721,209,17052,-2232,1260,-999,-75,19
247,821,708,884,740,206,17008,-2296,1088,-1011,-49,-21
250,821,703,880,725,208,17160,-2160,1160,-996,-76,-2
253,814,707,882,722,208,16964,-2212,1212,-1004,-10,-25
256,816,708,880,727,201,17152,-2244,1204,-1002,74,-14
259,816,707,881,731,199,16980,-2132,1176,-1034,25,-43
262,816,708,881,730,193,17084,-2204,1240,-1027,-116,-41
265,816,709,883,727,198,17056,-2280,1136,-1006,-136,-22
268,815,706,880,723,195,17040,-2300,1268,-999,-99,-31
271,816,717,881,726,194,17232,-2168,1276,-979,-34,-28
274,811,716,882,734,189,17220,-2328,1324,-926,-58,-6
277,816,715,882,722,192,17128,-2284,1432,-922,27,-32
280,812,711,886,727,186,17060,-2268,1448,-906,-129,-24
283,811,714,891,727,183,17212,-2236,1456,-860,78,-51
286,810,717,882,730,185,17212,-2188,1340,-911,38,-14
289,799,715,887,731,183,17164,-2200,1468,-949,72,-52
292,813,713,883,729,183,17156,-2220,1480,-1006,161,-72
295,811,706,899,733,185,17144,-2116,1320,-1055,52,-73
298,812,704,884,730,186,17116,-2132,1332,-1118,-4,-90
301,805,704,884,730,181,17072,-2104,1480,-1118,21,-89
304,810,705,883,735,184,17012,-2048,1276,-1173,7,-82
307,803,709,886,726,179,17096,-2212,1472,-1159,38,-72
310,809,715,887,730,176,17144,-2196,1340,-1162,101,-46
313,811,709,885,730,176,17064,-2284,1272,-1209,36,-83
316,812,713,881,725,175,17076,-2316,1336,-1218,26,-77
319,813,714,880,731,176,17048,-2312,1276,-1241,20,-119
322,810,711,882,737,177,17092,-2312,1320,-1212,103,-81
325,801,717,885,737,176,17052,-2356,1252,-1227,103,-106
328,807,718,885,742,177,17064,-2260,1372,-1230,27,-112
331,810,717,880,745,176,17108,-2356,1168,-1256,63,-102
334,811,718,880,743,175,17100,-2292,1316,-1278,78,-123
337,816,718,884,745,176,16948,-2412,1268,-1247,48,-138
340,817,719,881,737,177,17036,-2328,1316,-1258,32,-113
343,810,715,880,730,178,17048,-2284,1432,-1265,12,-115
346,812,709,879,727,171,17084,-2328,1236,-1284,23,-105
349,814,714,883,733,170,17060,-2244,1524,-1278,46,-104
352,816,714,883,727,176,17060,-2260,1408,-1253,89,-104
355,816,713,881,729,172,17100,-2260,1552,-1253,107,-97
358,815,718,880,729,177,17072,-2180,1500,-1244,120,-93
361,802,717,880,729,178,17008,-2260,1532,-1227,129,-109
364,813,719,879,726,174,17096,-2216,1264,-1251,144,-67
367,811,713,880,727,176,17080,-2152,1220,-1232,87,-133
370,812,710,883,729,173,17084,-2192,1188,-1238,32,-123
373,813,706,880,729,175,17068,-2328,1324,-1277,40,-81
376,815,705,880,731,172,17080,-2280,1328,-1272,0,-119
379,814,705,885,730,173,17096,-2300,1400,-1317,-6,-84
382,807,706,887,730,171,17048,-2244,1468,-1345,-9,-78
385,811,708,883,731,171,17176,-2192,1440,-1348,-3,-100
388,807,704,881,727,169,17100,-2284,1420,-1332,39,-90
391,810,714,880,733,171,17040,-2248,1364,-1337,17,-105
394,809,711,880,734,173,17072,-2268,1240,-1322,17,-127
397,813,713,883,730,169,17076,-2244,1252,-1296,52,-97
400,807,713,879,724,167,17068,-2264,1224,-1325,38,-89
403,809,716,885,727,175,17116,-2292,1124,-1288,23,-116
406,811,713,883,729,173,17080,-2352,1240,-1288,1,-120
409,816,713,885,726,176,17140,-2232,1252,-1352,-7,-113
412,815,706,888,732,176,16976,-2272,1108,-1392,19,-135
415,813,709,882,737,174,17008,-2340,1184,-1433,-18,-123
418,814,710,884,736,175,17072,-2376,1284,-1473,8,-152
421,815,707,889,737,176,16964,-2268,1340,-1444,53,-119
424,810,710,886,736,174,17096,-2284,1300,-1470,65,-124
427,816,715,885,739,175,17112,-2224,1392,-1501,87,-127
430,815,717,880,739,174,17136,-2356,1352,-1487,57,-120
433,812,717,885,745,171,17112,-2236,1160,-1517,76,-94
436,813,711,885,746,174,17120,-2368,1148,-1487,75,-120
439,816,715,885,742,172,17040,-2336,1316,-1464,33,-113
442,813,717,879,747,174,17028,-2268,1264,-1483,0,-140
445,816,720,880,749,175,17080,-2368,1388,-1401,7,-139
448,815,720,886,751,174,17052,-2356,1320,-1424,14,-137
451,815,723,879,757,172,17084,-2412,1392,-1342,27,-137
454,813,720,881,750,171,17136,-2372,1400,-1376,40,-172
457,812,720,883,752,177,17008,-2424,1544,-1359,23,-130
460,813,720,891,752,176,17100,-2496,1372,-1351,-1,-129
463,811,720,882,754,174,17024,-2424,1432,-1322,20,-129
466,807,720,891,751,173,16976,-2456,1368,-1268,20,-127
469,812,719,883,752,173,17028,-2460,1312,-1279,9,-150
472,810,715,885,756,173,17056,-2508,1360,-1268,0,-119
475,807,711,880,752,175,16968,-2544,1272,-1264,10,-124
478,807,711,887,752,175,17028,-2544,1172,-1252,-3,-130
481,803,707,889,752,175,17020,-2484,1288,-1210,-19,-111
484,804,710,895,761,173,16956,-2508,1324,-1236,-40,-109
487,802,709,885,753,176,16896,-2556,1300,-1188,-42,-92
490,805,707,886,755,172,16892,-2540,1116,-1202,-98,-83
493,810,705,893,755,173,17028,-2456,1292,-1135,-71,-77
496,802,711,890,757,176,17036,-2384,1272,-1099,-58,-108
499,801,705,884,764,172,17020,-2460,1148,-1093,-42,-88
502,814,713,883,767,172,16948,-2420,1188,-1052,-27,-80
505,809,703,885,765,172,17168,-2384,1216,-1061,-102,-94
508,810,711,886,763,173,17040,-2380,1056,-1038,-39,-90
511,815,714,891,762,170,17016,-2408,1176,-1031,-44,-86
514,811,710,883,768,170,16996,-2304,1132,-987,-60,-103
517,811,710,889,767,174,16996,-2232,1192,-997,-57,-108
520,815,707,887,767,175,17072,-2340,1272,-970,-68,-114
523,809,709,881,774,174,17024,-2284,1180,-961,-109,-135
526,811,710,886,768,168,17096,-2396,1160,-980,-125,-139
529,814,709,887,769,172,17104,-2296,1228,-992,-131,-163
532,814,714,886,767,169,17052,-2316,1260,-989,-86,-132
535,813,719,883,773,171,17008,-2288,1152,-1010,-118,-138
538,810,715,885,766,171,17036,-2428,1212,-1009,-175,-141
541,813,718,887,757,168,17128,-2296,1332,-1041,-147,-131
544,814,713,886,765,166,17084,-2328,1336,-1011,-172,-158
547,822,712,883,767,161,17164,-2216,1256,-1015,-158,-153
550,814,714,886,758,166,17088,-2276,1252,-1031,-161,-154
553,814,710,887,756,166,17140,-2300,1212,-1049,-112,-123
556,808,714,890,762,163,17152,-2240,1188,-1033,-92,-150
559,816,717,883,755,165,17084,-2300,1180,-1026,-78,-133
562,810,712,891,755,164,17080,-2300,1324,-1044,-70,-132
565,811,715,883,757,168,17220,-2312,1312,-1061,-96,-143
568,809,706,887,752,165,16968,-2316,1288,-1058,-72,-153
571,799,707,889,753,163,17112,-2244,1304,-1052,-98,-156
574,803,707,884,749,167,17144,-2112,1480,-1001,-41,-132
577,810,705,892,749,162,17156,-2220,1304,-979,-14,-120
580,809,703,893,749,166,17124,-2156,1156,-954,8,-137
583,809,701,882,750,165,17192,-2156,1392,-967,17,-147
586,811,701,886,752,169,17120,-2244,1064,-955,29,-150
589,817,704,883,746,167,17132,-2128,1144,-915,30,-156
592,806,704,883,749,163,17100,-2188,1132,-930,41,-168
595,811,708,892,739,167,17020,-2192,1188,-850,25,-174
598,814,710,885,738,164,17028,-2152,1144,-876,25,-161
601,807,709,889,734,165,17036,-2252,968,-888,2,-187
604,814,715,885,740,165,16980,-2308,1144,-853,6,-178
607,803,714,885,740,169,17080,-2300,1152,-864,-45,-216
610,812,714,891,745,167,17140,-2272,1148,-873,-94,-197
613,814,715,887,749,161,17092,-2308,1108,-933,-70,-173
616,814,715,893,745,165,17200,-2296,1192,-950,-104,-195
619,813,712,884,747,167,17200,-2304,1268,-946,-101,-165
622,814,714,887,743,162,17116,-2312,1180,-979,-112,-158
625,814,718,887,746,163,17116,-2300,1320,-963,-130,-154
628,813,717,883,741,163,17040,-2288,1188,-1002,-121,-130
631,813,713,887,736,167,17080,-2252,1236,-950,-76,-137
634,814,711,886,738,166,17068,-2236,1296,-931,-96,-134
637,813,709,881,739,163,17112,-2264,1188,-916,-91,-138
640,815,715,884,733,159,17020,-2296,1272,-920,-112,-145
643,816,717,881,736,159,17004,-2296,1156,-911,-119,-135
646,814,717,884,736,166,17048,-2252,1188,-924,-137,-126
649,817,717,885,733,163,17016,-2188,1028,-917,-174,-123
652,810,718,891,727,169,17036,-2248,1180,-911,-184,-95
655,811,716,884,734,165,17036,-2180,1268,-906,-136,-100
658,814,708,883,727,163,17124,-2084,1332,-923,-168,-45
661,809,711,882,735,165,17112,-2084,1352,-910,-128,-18
664,809,717,884,730,171,17100,-2124,1288,-905,-118,-19
667,811,729,910,730,166,17028,-2144,1340,-911,-125,-15
670,811,710,885,733,164,17012,-2136,1284,-920,-118,2
673,804,706,884,731,164,17016,-2120,1208,-888,-117,5
676,799,703,887,726,171,17000,-2076,1100,-922,-112,4
679,807,710,886,729,171,17008,-2140,1208,-876,-107,36
682,807,705,883,727,167,17064,-2068,1128,-931,-126,24
685,802,707,889,724,167,17192,-2116,1164,-909,-156,37
688,810,710,891,722,167,16920,-2092,1140,-953,-154,53
691,806,704,891,723,170,17152,-2012,1104,-956,-176,58
694,810,703,891,720,172,17080,-1988,1120,-1000,-196,75
697,811,707,889,721,170,17136,-1980,948,-1027,-179,51
700,802,705,880,725,171,16988,-2040,1180,-1048,-200,68
703,812,703,889,720,169,16940,-1912,1096,-1099,-199,59
706,808,702,886,722,169,17008,-1972,1108,-1168,-231,43
709,811,703,893,726,170,17012,-2020,1316,-1178,-164,21
712,807,704,891,723,170,17016,-1944,1068,-1234,-181,50
715,815,705,915,727,170,17096,-2004,1308,-1258,-216,27
718,801,704,885,729,176,17188,-1956,1076,-1303,-189,48
721,812,702,885,730,167,17148,-2016,1128,-1323,-178,36
724,810,707,886,733,173,17144,-1944,1056,-1327,-111,51
727,807,701,889,731,169,17084,-1960,1092,-1318,-126,12
730,816,705,886,736,175,17028,-1960,1084,-1311,-108,28
733,814,706,890,735,176,17092,-1976,1124,-1334,-28,6
736,814,713,896,727,174,17140,-1952,1216,-1325,-35,-8
739,816,716,895,730,173,17092,-2044,1100,-1308,-101,9
742,816,714,890,731,176,17104,-2064,880,-1317,-86,6
745,811,709,886,726,176,17160,-2132,908,-1300,-27,-20
748,813,718,892,723,171,17048,-2116,888,-1323,27,-11
751,809,710,883,733,173,17124,-2148,1128,-1347,82,-23
754,833,713,886,726,169,16980,-2140,1220,-1395,-17,-28
757,810,726,881,730,171,17168,-2184,1140,-1401,64,-13
760,811,722,887,735,175,17136,-2272,1112,-1442,34,-39
763,819,720,893,733,167,17024,-2292,1172,-1464,8,-65
766,815,721,893,734,172,17188,-2292,1292,-1390,43,-13
769,818,721,894,734,166,16936,-2408,1124,-1402,-87,-34
772,807,720,890,742,174,17212,-2388,1208,-1331,-15,22
775,817,721,883,733,169,17120,-2352,1044,-1366,-56,-47
778,816,720,889,741,173,17088,-2424,1064,-1351,-144,-75
781,821,723,891,742,166,17004,-2520,1072,-1303,-189,-91
784,816,722,889,739,175,17156,-2572,1120,-1277,-76,-90
787,809,720,891,741,169,17124,-2540,1008,-1209,9,-61
790,815,718,885,743,167,17140,-2584,1092,-1189,57,-97
793,812,715,887,750,167,17136,-2528,1212,-1177,15,-78
796,807,717,885,747,167,17012,-2548,1240,-1110,-56,-66
799,811,716,891,749,173,17016,-2640,1216,-1099,-26,-49
802,803,717,880,741,166,16968,-2624,1204,-1060,-54,-48
805,811,717,882,746,166,17120,-2600,964,-996,-116,-112
808,811,715,885,747,169,16972,-2556,1148,-935,-80,-90
811,800,711,882,741,166,16976,-2560,1184,-857,-64,-113
814,806,717,887,739,173,17092,-2564,1020,-789,-19,-110
817,809,715,883,734,167,17132,-2600,1172,-736,-23,-124
820,808,715,881,754,169,17072,-2588,1164,-669,-24,-143
823,811,719,883,735,171,17068,-2536,1128,-624,-44,-134
826,810,720,886,735,171,16944,-2484,1096,-524,-56,-172
829,828,719,881,737,169,17020,-2580,1060,-481,-61,-140
832,807,719,886,735,171,16912,-2600,1108,-405,-40,-141
835,797,715,880,742,166,17076,-2540,1028,-356,18,-174
838,807,714,886,737,169,17012,-2628,1108,-323,45,-152
841,805,710,879,739,162,17104,-2552,992,-282,84,-173
844,811,720,891,741,163,17004,-2684,980,-233,52,-198
847,808,720,880,741,167,17056,-2680,1012,-218,35,-178
850,807,720,885,737,166,16936,-2724,972,-174,22,-190
853,808,721,882,735,162,17012,-2648,928,-132,14,-202
856,807,721,889,741,169,17060,-2596,904,-78,-9,-205
859,809,719,886,745,167,17040,-2596,956,-42,-3,-199
862,807,720,886,738,168,17016,-2636,788,-32,-53,-201
865,810,717,885,739,170,16836,-2608,976,-6,-92,-229
868,809,715,880,741,167,17084,-2584,868,-17,-111,-206
871,809,717,880,736,166,17036,-2556,908,8,-105,-201
874,807,712,883,732,164,17132,-2588,1032,23,-152,-215
877,801,714,885,731,166,17008,-2428,1100,38,-175,-187
880,811,717,885,733,170,17092,-2336,1060,8,-196,-221
883,811,717,882,728,173,16976,-2368,1152,46,-195,-181
886,813,718,905,727,166,17020,-2320,1064,66,-210,-203
889,814,715,885,730,173,17024,-2328,1056,137,-151,-207
892,814,713,892,729,166,16988,-2288,1012,235,-175,-194
895,816,711,889,726,169,17068,-2248,1208,228,-122,-174
898,810,707,884,725,167,17020,-2260,1076,298,-88,-187
901,813,710,887,725,165,17160,-2224,1140,337,-84,-166
904,814,705,882,729,169,17060,-2284,1004,355,-86,-185
907,808,709,883,725,170,17068,-2312,1232,380,-83,-170
910,809,707,885,722,173,16936,-2212,1148,380,-83,-137
913,809,704,891,724,170,17100,-2188,1192,398,-103,-134
916,799,716,889,726,169,17008,-2188,1208,415,-92,-106
919,806,710,889,723,170,17000,-2216,1152,457,-82,-120
922,812,709,885,723,165,16956,-2144,1184,415,-119,-115
925,809,704,891,718,171,17004,-2096,1124,449,-65,-124
928,803,702,887,716,171,17008,-2108,1012,447,-66,-112
931,810,703,889,711,172,17008,-2132,1092,412,-69,-145
934,813,702,890,716,170,17124,-1932,1076,404,-68,-125
937,816,702,892,718,170,17132,-2060,1248,384,-91,-151
940,809,706,890,717,171,17096,-1932,988,346,-97,-129
943,819,703,883,719,171,17032,-2000,1140,312,-111,-154
946,806,705,884,718,167,17056,-1932,928,269,-97,-176
949,807,705,887,719,170,17156,-1956,1188,219,-99,-150
952,806,707,883,720,170,17132,-1972,932,219,-95,-160
955,799,711,883,721,174,17152,-1932,988,193,-78,-157
958,806,706,884,723,172,17112,-1864,920,116,-90,-180
961,813,709,891,723,176,17168,-2020,868,77,-59,-185
964,810,704,884,724,174,17060,-2072,844,45,-87,-183
967,810,710,887,727,173,17072,-1996,888,26,-87,-196
970,811,708,885,737,176,16992,-1888,984,18,-135,-172
973,808,713,889,735,178,17080,-1832,968,-56,-145,-212
976,815,712,886,740,176,17132,-1912,1176,-33,-167,-233
979,807,717,887,745,171,17132,-1932,1128,-72,-135,-203
982,807,713,887,745,180,17148,-1832,1168,-83,-92,-228
985,814,716,890,741,171,17280,-1840,1156,-109,-104,-254
988,810,719,890,736,177,17216,-1928,1220,-150,-103,-237
991,812,719,887,738,176,17224,-1868,1324,-157,-57,-252
994,815,717,890,742,176,17296,-1812,1368,-166,-18,-223
997,816,717,890,739,176,17248,-1696,1356,-146,33,-240
1000,815,720,885,739,173,17396,-1668,1328,-193,134,-211
1003,806,717,887,742,175,17160,-1748,1416,-160,159,-193
1006,816,730,887,739,173,17172,-1752,1396,-181,144,-205
1009,809,717,884,734,173,17296,-1700,1200,-201,159,-234
1012,816,719,880,730,173,17164,-1828,1244,-219,199,-198
1015,801,722,885,726,173,17152,-1788,1392,-225,133,-236
1018,812,720,880,721,176,17124,-1848,1256,-247,103,-256
1021,816,724,887,720,175,17192,-1784,1256,-270,57,-233
1024,816,723,880,720,179,17116,-1800,1172,-274,82,-231
1027,814,726,880,713,175,17080,-1972,1308,-265,31,-259
1030,816,722,885,717,174,17140,-1852,1080,-243,23,-284
1033,814,721,880,717,175,17116,-1924,1148,-256,44,-235
1036,813,720,883,721,175,17196,-1868,1156,-273,66,-263
1039,815,709,888,715,170,17196,-2000,1164,-296,67,-282
1042,816,720,883,719,175,17132,-1960,1096,-352,88,-276
1045,816,722,883,719,173,17108,-1900,1204,-426,88,-281
1048,816,720,880,719,174,17168,-1948,1224,-440,133,-282
1051,818,723,901,719,175,17064,-1976,1256,-493,127,-270
1054,819,721,873,718,171,17040,-1940,1296,-573,108,-261
1057,821,731,882,720,176,17188,-1956,1228,-600,128,-250
1060,819,722,884,720,172,17028,-1928,1448,-629,168,-227
1063,819,722,880,720,174,17096,-1924,1264,-698,168,-241
1066,815,719,880,722,175,17132,-1864,1312,-691,209,-228
1069,816,725,886,717,173,17164,-1936,1240,-775,211,-220
1072,816,722,874,724,170,17060,-1760,1292,-790,208,-208
1075,816,727,885,721,173,17120,-1808,1328,-797,184,-184
1078,813,720,882,720,170,17124,-1844,1232,-821,184,-207
1081,816,721,880,720,170,17128,-1740,1384,-840,193,-165
1084,813,727,880,720,167,17136,-1920,1340,-867,155,-145
1087,816,720,879,720,165,17160,-1824,1420,-847,162,-138
1090,815,719,881,734,170,17176,-1760,1284,-865,166,-128
1093,816,720,880,718,169,17072,-1760,1300,-866,187,-122
1096,816,721,881,718,176,17148,-1904,1320,-877,155,-121
1099,816,720,881,715,173,17100,-1748,1396,-936,189,-122
1102,825,719,880,715,172,17080,-1708,1284,-939,167,-105
1105,816,720,881,717,174,17208,-1752,1356,-993,167,-99
1108,816,720,881,717,170,17140,-1872,1372,-1021,150,-92
1111,816,735,880,720,173,17096,-1804,1240,-1057,171,-93
1114,813,720,881,720,173,17096,-1796,1080,-1090,140,-94
1117,805,720,883,718,176,17220,-1872,1148,-1126,140,-87
1120,814,725,886,717,171,17104,-1920,1120,-1154,166,-93
1123,819,720,882,719,174,17072,-1960,1020,-1253,135,-106
1126,809,719,880,717,167,17112,-1860,1124,-1318,130,-122
1129,806,720,882,720,175,17100,-1940,1292,-1365,111,-78
1132,810,720,880,723,173,17140,-1852,1180,-1434,147,-79
1135,802,708,883,719,175,17160,-1964,1420,-1486,142,-61
1138,813,715,885,720,176,17064,-1932,1336,-1575,150,-57
1141,814,719,885,720,174,17088,-1868,1272,-1612,168,-51
1144,799,723,887,720,174,17016,-1980,1104,-1667,193,-48
1147,814,723,886,720,177,16952,-1864,1284,-1675,247,-45
1150,803,723,882,725,176,17088,-1896,1124,-1724,220,-10
1153,811,722,883,720,176,17052,-1896,1212,-1746,271,-10
1156,813,725,885,720,172,17028,-1956,1152,-1735,271,0
1159,816,725,885,720,176,17128,-2020,1352,-1789,235,5
1162,815,723,885,719,176,17016,-1900,1320,-1759,313,-5
1165,813,721,882,722,176,17172,-2044,1308,-1752,321,13
1168,815,733,892,721,177,17084,-2040,1348,-1697,339,5
1171,816,734,887,721,176,16968,-2076,1396,-1684,382,21
1174,815,730,893,720,177,17024,-2048,1192,-1701,350,20
1177,811,731,889,720,176,17012,-2108,1124,-1684,357,3
1180,813,729,889,720,176,17112,-2180,1212,-1696,317,21
1183,815,731,886,726,176,16972,-2220,1176,-1687,289,-13
1186,815,725,885,722,179,16928,-2272,1152,-1702,231,0
1189,815,723,893,725,176,16932,-2292,1156,-1691,196,-18
1192,816,722,893,724,178,16992,-2372,1120,-1680,166,1
1195,813,727,893,723,175,16944,-2376,1208,-1674,150,-13
1198,816,720,892,724,176,16948,-2516,1432,-1633,125,5
1201,811,720,880,722,176,17088,-2448,1140,-1586,109,8
1204,811,719,891,720,177,16968,-2620,1128,-1590,118,32
1207,803,720,889,723,176,17096,-2476,1276,-1504,93,13
1210,802,715,891,723,175,17032,-2532,1156,-1525,74,38
1213,807,720,893,726,176,17028,-2444,1208,-1488,66,34
1216,807,720,885,725,175,17012,-2532,1184,-1451,70,62
1219,809,719,891,727,176,17108,-2536,1168,-1458,86,74
1222,805,715,894,723,176,17032,-2528,1312,-1441,80,44
1225,807,713,886,724,179,17004,-2432,1380,-1406,109,101
1228,811,714,891,720,181,17124,-2400,1376,-1381,161,65
1231,811,714,889,707,180,17068,-2440,1108,-1345,214,76
1234,816,717,891,713,178,17180,-2452,1128,-1314,207,67
1237,816,717,885,711,178,17028,-2444,1180,-1268,207,82
1240,818,720,888,710,178,16992,-2504,1192,-1223,199,57
1243,813,720,892,715,176,17060,-2492,1228,-1195,198,59
1246,818,720,887,717,176,17044,-2508,1264,-1197,153,66
1249,820,719,880,716,176,17036,-2504,1340,-1186,140,-1
1252,816,724,887,715,178,17116,-2568,1348,-1183,109,22
1255,817,723,890,719,176,16960,-2476,1404,-1212,108,3
1258,816,725,893,720,176,17016,-2524,1268,-1185,63,-16
1261,814,727,891,720,176,17180,-2460,1540,-1171,73,1
1264,809,726,893,725,177,17036,-2504,1460,-1132,76,-14
1267,810,715,887,727,175,17008,-2432,1344,-1069,67,-31
1270,807,726,887,720,177,17024,-2460,1428,-1035,48,2
1273,807,730,887,720,176,16956,-2408,1420,-953,70,-49
1276,813,727,885,720,175,16964,-2388,1420,-909,62,-68
1279,807,734,891,717,176,16896,-2416,1580,-843,74,-78
1282,806,732,889,727,176,17060,-2480,1440,-829,97,-101
1285,807,735,881,719,176,16952,-2420,1220,-772,94,-97
1288,806,734,891,719,175,16808,-2400,1396,-715,102,-97
1291,807,736,887,715,176,16940,-2404,1340,-635,73,-123
1294,806,732,887,714,176,16952,-2408,1480,-568,82,-115
1297,813,726,885,709,176,16980,-2472,1436,-493,62,-122
1300,810,722,883,711,176,16976,-2260,1396,-462,67,-90
1303,805,729,885,713,177,17012,-2480,1336,-426,40,-101
1306,806,725,895,704,176,17008,-2412,1336,-384,14,-103
1309,809,731,891,707,176,17148,-2496,1228,-365,29,-79
1312,812,723,883,710,182,17096,-2448,1360,-371,29,-84
1315,811,720,889,704,175,17036,-2580,1328,-363,-2,-73
1318,816,720,887,705,174,16992,-2528,1248,-376,-39,-57
1321,814,720,888,704,176,17040,-2524,1448,-357,-74,-58
1324,823,722,890,703,174,17100,-2404,1524,-374,-110,-36
1327,818,721,880,701,176,17124,-2352,1520,-367,-134,-63
1330,821,720,884,698,176,17112,-2340,1352,-370,-143,-70
1333,832,719,883,699,173,17068,-2328,1472,-383,-184,-83
1336,812,717,899,700,176,17092,-2460,1612,-400,-182,-102
1339,813,713,893,702,168,17000,-2436,1800,-402,-162,-140
1342,813,711,889,700,176,17088,-2264,1668,-345,-247,-178
1345,816,709,887,693,174,17028,-2196,1720,-372,-204,-165
1348,819,704,881,699,174,17036,-2120,1908,-342,-197,-155
1351,816,707,889,701,172,17140,-2084,1836,-379,-233,-160
1354,816,704,883,706,175,17056,-2176,1972,-356,-172,-127
1357,817,706,885,703,174,17164,-2052,1796,-358,-176,-143
1360,816,698,881,720,176,17268,-2048,1848,-391,-152,-117
1363,815,704,886,705,176,17104,-2020,1860,-382,-128,-94
1366,816,702,881,701,172,17160,-2068,1872,-383,-156,-102
1369,816,703,886,704,174,17132,-1972,1848,-400,-152,-64
1372,807,706,880,704,175,17136,-1912,1888,-434,-136,-89
1375,814,709,881,711,176,17104,-1972,1836,-490,-135,-66
1378,817,708,879,713,176,17068,-1908,1700,-505,-86,-43
1381,812,711,880,710,175,17180,-2004,1804,-548,-74,-3
1384,813,719,880,707,176,17172,-1948,1640,-573,-53,-23
1387,814,719,880,706,173,17048,-2040,1688,-577,13,-12
1390,810,720,875,707,171,17216,-1852,1756,-638,20,0
1393,811,715,881,710,175,17140,-1872,1636,-666,59,13
1396,816,728,880,720,173,17220,-1800,1524,-720,45,-27
1399,814,730,882,710,173,17228,-1848,1444,-779,102,-40
1402,811,739,879,706,171,17192,-1840,1536,-792,131,-23
1405,814,740,879,718,173,17124,-1776,1408,-857,87,-36
1408,810,745,880,715,171,17112,-1864,1432,-886,133,-41
1411,813,741,879,719,170,17172,-1832,1304,-896,141,-33
1414,810,750,875,729,173,17108,-1748,1324,-940,136,-34
1417,812,759,879,721,174,17008,-1788,1164,-946,149,-25
1420,803,739,875,726,173,16988,-1736,1160,-1010,159,-46
1423,811,747,881,723,169,17000,-1804,1232,-1069,153,-63
1426,814,747,880,723,170,17124,-1816,1192,-1135,127,-26
1429,809,742,880,725,176,16944,-1836,1264,-1180,130,-45
1432,811,741,879,733,170,16928,-1796,1000,-1221,126,-56
1435,810,758,882,727,166,17088,-1864,1288,-1256,92,-21
1438,816,738,880,734,169,16968,-1932,1180,-1292,59,-23
1441,811,736,880,735,167,17012,-1904,1188,-1336,58,-28
1444,807,738,880,735,172,17000,-1996,1232,-1351,40,-66
1447,813,732,883,732,170,16864,-2024,1408,-1370,-14,-30
1450,815,734,885,733,172,16884,-2164,1412,-1386,-61,-52
1453,815,727,895,730,174,16956,-2192,1248,-1387,-69,-18
1456,816,723,882,732,176,17044,-2188,1388,-1413,-64,1
1459,816,723,882,737,176,17132,-2244,1520,-1422,-113,-31
1462,816,717,880,730,174,16984,-2308,1400,-1469,-151,4
1465,817,719,892,727,173,16988,-2224,1564,-1495,-140,15
1468,815,719,881,730,174,17044,-2240,1584,-1474,-117,47
1471,816,717,880,725,175,17128,-2292,1520,-1493,-107,43
1474,816,711,886,727,174,17132,-2320,1312,-1536,-99,79
1477,819,711,890,727,170,17172,-2152,1340,-1571,-63,94
1480,817,705,887,722,171,17060,-2244,1380,-1629,-55,107
1483,818,707,893,722,169,17092,-2172,1336,-1657,-57,102
1486,820,704,884,720,173,17084,-2260,1320,-1666,-67,134
1489,819,706,887,722,170,17148,-2288,1080,-1680,-91,103
1492,821,707,882,730,175,17148,-2416,1064,-1672,-73,104
1495,823,703,880,737,170,17156,-2448,1012,-1669,-103,89
1498,821,709,887,730,176,17080,-2500,948,-1673,-138,97
1501,816,706,886,720,170,17200,-2508,968,-1644,-87,88
1504,816,703,880,723,168,17052,-2476,1000,-1636,-125,68
1507,816,703,887,718,174,17132,-2564,1096,-1625,-115,44
1510,816,704,883,719,176,17136,-2552,1048,-1562,-120,22
1513,816,704,882,717,170,16992,-2624,1104,-1505,-119,6
1516,816,711,890,718,172,16972,-2576,1176,-1509,-158,8
1519,813,711,880,720,173,17024,-2552,1328,-1402,-132,-22
1522,816,706,880,720,171,17024,-2516,1256,-1390,-79,19
1525,806,714,889,720,172,17072,-2592,1228,-1287,-98,19
1528,810,720,883,721,170,17044,-2512,1252,-1148,-84,-9
1531,805,711,881,725,167,17132,-2508,1272,-1056,-60,26
1534,806,715,880,735,172,17076,-2488,1420,-931,-43,21
1537,803,716,880,727,169,17104,-2476,1452,-838,-66,34
1540,810,715,880,727,175,17176,-2452,1324,-805,-58,10
1543,802,726,882,734,176,17132,-2456,1480,-708,-61,1
1546,805,724,880,738,176,17172,-2500,1472,-619,-66,17
1549,807,729,880,733,169,17016,-2364,1548,-572,-27,3
1552,801,729,883,729,171,17272,-2460,1596,-509,-92,-1
1555,803,734,887,734,176,17160,-2448,1432,-474,-111,-29
1558,802,735,880,733,176,17204,-2452,1528,-423,-100,24
1561,805,739,883,731,173,17124,-2356,1616,-427,-59,-20
1564,804,737,880,733,176,17100,-2424,1488,-411,-70,-18
1567,802,740,880,731,173,17000,-2320,1328,-401,-96,-20
1570,817,750,887,720,176,17132,-2388,1300,-382,-113,-19
1573,804,736,882,727,169,17112,-2348,1348,-447,-86,-2
1576,801,733,883,718,173,17140,-2296,1408,-406,-91,-10
1579,806,730,880,720,170,17068,-2208,1184,-471,-66,-12
1582,806,725,881,717,165,17064,-2156,1152,-446,-72,-31
1585,803,720,882,717,167,17096,-2088,1004,-499,-45,-1
1588,805,721,882,713,171,17064,-2116,1000,-557,-15,10
1591,807,718,880,710,171,17152,-2012,1128,-558,17,-29
1594,811,716,884,715,169,16976,-1988,1036,-610,-1,0
1597,810,712,891,707,169,17020,-1908,1020,-675,-13,-19
1600,815,715,885,705,167,16988,-1920,1040,-730,11,0
1603,816,704,879,709,169,17008,-1948,996,-800,-18,-25
1606,815,711,892,710,171,16932,-1888,1076,-888,-50,-3
1609,812,707,877,715,170,16932,-1872,1176,-948,-41,-37
1612,816,704,887,714,169,17064,-1796,1064,-1006,-52,-61
1615,816,704,882,715,165,17076,-1908,1080,-1029,-123,-67
1618,827,698,880,718,167,17024,-1732,1120,-1050,-109,-43
1621,822,703,885,720,167,17020,-1756,1000,-1088,-137,-44
1624,816,704,881,724,167,17076,-1720,1112,-1086,-136,-43
1627,825,707,882,723,169,17120,-1760,1212,-1099,-121,-28
1630,817,709,885,722,162,17076,-1836,1136,-1107,-97,-1
1633,822,711,881,720,169,17124,-1764,1000,-1132,-93,-48
1636,818,719,880,725,165,17088,-1792,1124,-1188,-122,-20
1639,822,715,881,729,171,16964,-1852,1100,-1188,-85,-20
1642,816,722,880,735,171,17088,-1868,1032,-1231,-124,-17
1645,816,722,881,727,175,17044,-1948,1148,-1256,-123,-29
1648,821,721,885,726,169,17064,-1940,1080,-1295,-99,-29
1651,817,720,875,727,171,17088,-1968,1188,-1315,-109,-24
1654,816,727,884,725,171,17084,-2140,1176,-1335,-118,-19
1657,815,725,883,725,165,17168,-2128,1108,-1392,-122,-13
1660,815,723,878,730,174,17060,-2232,1352,-1385,-123,-2
1663,813,729,881,726,169,17196,-2248,1292,-1426,-103,-11
1666,815,732,884,724,163,17040,-2320,1204,-1439,-90,21
1669,815,725,880,727,169,17140,-2296,1408,-1459,-78,40
1672,806,734,880,732,172,17180,-2332,1260,-1464,-28,41
1675,810,731,886,725,171,17140,-2352,1388,-1437,-24,66
1678,802,730,883,730,173,17104,-2288,1236,-1357,32,84
1681,807,723,885,730,174,17156,-2340,1368,-1362,67,83
1684,805,725,893,724,174,17072,-2380,1444,-1282,56,91
1687,810,729,886,725,174,17064,-2440,1372,-1297,96,79
1690,804,723,889,722,172,17120,-2464,1276,-1259,99,80
1693,799,729,889,733,174,17108,-2396,1240,-1279,69,77
1696,803,727,896,723,173,17048,-2372,1340,-1253,74,69
1699,799,721,892,722,172,17000,-2424,1424,-1214,29,63
1702,802,717,886,723,174,17056,-2420,1216,-1180,79,53
1705,806,720,893,726,176,17104,-2380,1256,-1136,27,32
1708,807,713,880,729,176,16940,-2452,1168,-1091,54,41
1711,806,711,893,723,174,17020,-2416,1304,-1046,17,40
1714,800,711,891,723,176,17032,-2316,1316,-1009,26,38
1717,811,711,889,726,176,16960,-2332,1300,-996,30,3
1720,799,706,885,726,175,17020,-2368,1180,-1000,-7,9
1723,812,704,882,726,178,17012,-2296,1340,-998,18,11
1726,809,706,882,731,174,16976,-2312,1332,-991,-4,2
1729,810,705,881,729,176,16952,-2384,1184,-994,-11,3
1732,815,714,880,733,176,16928,-2460,1268,-1004,1,-13
1735,816,706,889,727,177,17052,-2332,1208,-998,2,19
1738,813,710,887,723,176,16904,-2384,1224,-1035,-25,8
1741,814,708,887,723,177,16992,-2312,1344,-1034,-57,29
1744,809,709,884,726,176,17096,-2224,1336,-1063,-69,23
1747,816,710,883,725,176,16996,-2220,1372,-1059,-77,47
1750,815,720,880,721,176,17000,-2204,1384,-1039,-104,32
1753,810,720,880,727,175,17040,-2156,1192,-1052,-88,42
1756,815,711,881,730,175,17060,-2164,1240,-993,-90,40
1759,814,714,885,726,176,17068,-2256,1272,-1045,-111,32
1762,813,720,880,726,176,17128,-2272,1220,-1048,-129,33
1765,810,717,881,720,173,17084,-2236,1268,-1079,-148,29
1768,817,722,886,723,178,17136,-2236,1232,-1061,-152,47
1771,811,721,887,720,176,17088,-2312,1344,-1044,-145,6
1774,814,720,885,720,175,17112,-2224,1264,-983,-161,24
1777,815,719,885,720,176,17176,-2280,1344,-975,-151,27
1780,812,719,887,722,175,17040,-2340,1352,-926,-171,23
1783,802,713,883,720,176,17180,-2244,1344,-908,-142,-22
1786,811,715,898,721,177,17148,-2244,1068,-884,-116,1
1789,806,715,883,722,173,17240,-2384,1500,-852,-113,5
1792,815,712,884,721,172,17112,-2200,1260,-817,-148,1
1795,831,715,880,720,176,17140,-2232,1420,-859,-133,25
1798,820,715,882,720,176,17132,-2216,1252,-789,-108,3
1801,810,720,886,716,176,17100,-2308,1304,-742,-95,0
1804,809,715,880,726,175,17012,-2308,1328,-755,-94,18
1807,813,717,884,722,176,17108,-2300,1412,-718,-25,-3
1810,813,722,883,733,176,17092,-2244,1168,-687,-36,22
1813,809,720,880,725,174,16952,-2252,1332,-682,-20,-11
1816,816,719,883,726,176,17112,-2240,1208,-638,-13,-7
1819,816,718,882,721,173,17060,-2296,1232,-661,-37,9
1822,810,718,883,727,174,17100,-2200,1304,-677,-15,-7
1825,808,722,882,730,176,17164,-2200,1268,-728,-19,17
1828,814,721,886,722,176,17132,-2112,1124,-801,-97,14
1831,814,722,881,721,173,17016,-2172,1240,-843,-65,11
1834,813,722,885,723,173,17024,-2080,1228,-923,-63,-17
1837,806,719,879,721,176,17052,-2028,1372,-994,-75,10
1840,805,719,882,723,175,17324,-2140,1352,-1026,-66,-7
1843,809,717,885,725,173,17108,-2028,1480,-1100,-55,28
1846,808,724,881,730,174,17008,-1944,1244,-1119,-57,12
1849,816,720,883,723,171,17164,-1932,1348,-1157,-10,26
1852,806,720,889,722,174,17248,-1936,1440,-1233,-21,41
1855,807,721,890,724,175,17140,-1924,1356,-1191,-31,23
1858,815,724,890,725,176,17096,-1780,1228,-1163,2,23
1861,817,711,889,722,173,17136,-1944,1344,-1186,31,32
1864,811,720,889,723,175,17036,-1892,1360,-1176,27,-9
1867,812,719,887,721,174,17200,-1820,1284,-1176,47,-17
1870,816,720,887,720,173,17116,-1836,1264,-1182,60,7
1873,811,720,885,723,174,17036,-2040,1220,-1194,65,-12
1876,816,727,881,719,172,16964,-2024,1244,-1216,87,6
1879,811,721,885,724,176,16972,-1992,1180,-1182,44,-13
1882,803,723,886,719,171,17036,-2044,1064,-1256,55,9
1885,816,720,890,720,174,16936,-2092,1320,-1249,36,-14
1888,815,719,882,720,174,17036,-2056,1252,-1273,21,-42
1891,810,716,887,720,167,17028,-2168,1320,-1289,9,-24
1894,806,717,887,721,171,17040,-2072,1372,-1339,44,-43
1897,815,717,880,723,173,17076,-2176,1400,-1322,9,-30
1900,816,720,885,728,174,17140,-2200,1164,-1331,6,-25
1903,813,715,883,730,170,16972,-2248,1328,-1360,-15,-34
1906,814,718,880,724,171,16992,-2296,1236,-1325,-24,-40
1909,815,720,886,729,175,17036,-2192,1304,-1340,-16,-79
1912,814,717,883,732,169,17040,-2188,1076,-1349,-23,-38
1915,816,719,882,724,170,17064,-2236,1296,-1364,-49,-70
1918,816,719,883,726,170,17032,-2360,1344,-1389,-53,-55
1921,819,720,885,727,171,17008,-2324,1324,-1375,-48,-37
1924,818,720,885,727,177,17084,-2296,1408,-1386,-57,-52
1927,816,724,882,726,172,17148,-2452,1480,-1355,-76,-42
1930,816,729,889,731,176,17184,-2360,1468,-1325,-82,-47
1933,818,723,880,731,174,17104,-2396,1248,-1348,-67,-40
1936,823,725,884,734,170,17152,-2372,1504,-1274,-68,-47
1939,816,725,885,729,167,17060,-2396,1280,-1272,-24,-19
1942,815,732,880,722,171,17104,-2380,1208,-1261,-34,-40
1945,814,723,880,727,169,17096,-2448,1320,-1215,-22,-45
1948,815,721,880,726,165,17172,-2428,1240,-1216,-26,-28
1951,822,721,879,723,167,17056,-2476,1296,-1154,-44,-20
1954,816,724,880,724,171,17084,-2464,1504,-1155,4,-29
1957,815,720,880,733,163,17080,-2412,1420,-1143,-3,-32
1960,807,721,881,732,165,17036,-2452,1308,-1129,-1,-15
1963,813,721,886,730,162,17008,-2420,1224,-1133,-34,-32
1966,812,721,883,731,165,16980,-2484,1412,-1118,-26,-16
1969,813,721,885,732,171,17036,-2472,1236,-1095,-19,-43
1972,815,723,881,732,165,17108,-2568,1228,-1090,-7,-30
1975,811,725,881,735,166,17016,-2568,1336,-1044,21,-49
1978,816,724,880,736,169,17052,-2412,1372,-984,3,-31
1981,813,729,880,731,161,17072,-2512,1252,-932,46,-24
1984,802,722,881,740,166,17052,-2380,1384,-930,20,-71
1987,809,721,881,731,166,17120,-2464,1540,-942,2,-73
1990,802,717,886,736,171,17012,-2368,1464,-943,-9,-59
1993,802,711,883,736,172,17152,-2432,1412,-894,-9,-75
1996,804,710,883,737,164,17068,-2364,1416,-895,22,-47
1999,816,715,883,737,174,17000,-2340,1588,-884,-9,-83
2002,810,707,882,734,169,17028,-2400,1516,-838,16,-77
2005,802,719,887,741,167,17012,-2336,1660,-827,32,-81
2008,814,722,883,738,169,17068,-2308,1508,-798,-11,-100
2011,810,720,887,736,174,17068,-2388,1520,-793,5,-103
2014,813,722,887,735,172,17084,-2372,1388,-782,-20,-127
2017,811,718,880,733,174,17036,-2388,1404,-751,-18,-98
2020,815,720,881,733,166,17140,-2288,1440,-731,-16,-100
2023,816,718,886,726,168,16952,-2344,1444,-748,-33,-136
2026,811,720,885,726,167,17080,-2360,1456,-715,-52,-133
2029,818,720,880,723,166,16912,-2312,1364,-719,-44,-114
2032,811,722,883,726,162,16916,-2332,1228,-712,-61,-121
2035,810,723,881,730,165,17112,-2284,1372,-670,-88,-100
2038,811,720,881,730,165,17040,-2352,1300,-670,-65,-119
2041,807,730,889,733,163,17036,-2288,1388,-678,-81,-115
2044,812,720,879,737,161,17092,-2336,1292,-682,-82,-120
2047,811,717,883,731,167,17080,-2308,1360,-690,-110,-125
2050,814,715,882,736,170,17020,-2388,1288,-735,-98,-120
2053,814,720,885,740,160,17056,-2324,1428,-747,-149,-112
2056,816,710,880,737,164,17104,-2316,1316,-757,-143,-124
2059,815,717,886,749,162,17108,-2336,1248,-765,-147,-145
2062,814,719,883,737,160,17168,-2332,1252,-809,-161,-115
2065,817,719,886,736,162,17020,-2388,1280,-792,-127,-126
2068,814,720,886,739,162,17008,-2372,1180,-790,-137,-109
2071,815,721,884,751,161,17140,-2372,1288,-810,-117,-106
2074,816,717,881,746,163,17020,-2336,1260,-780,-132,-101
2077,814,720,886,743,158,17136,-2268,1368,-817,-135,-87
2080,816,720,880,745,160,16976,-2340,1308,-765,-139,-126
2083,816,721,885,746,161,16940,-2368,1212,-765,-161,-130
2086,811,719,889,752,164,17040,-2344,1460,-703,-158,-122
2089,806,720,881,751,161,17140,-2248,1128,-704,-186,-94
2092,810,721,889,752,163,17036,-2300,1288,-695,-177,-105
2095,809,733,881,752,163,17036,-2216,1176,-681,-203,-109
2098,804,720,891,752,165,17164,-2268,1360,-642,-174,-101
2101,809,720,891,746,162,17252,-2264,1436,-645,-155,-103
2104,805,720,886,750,165,17240,-2208,1328,-616,-151,-74
2107,803,720,893,752,165,17176,-2172,1460,-607,-127,-83
2110,802,720,892,747,164,17168,-2112,1208,-583,-72,-61
2113,806,717,883,749,166,17140,-2176,1360,-584,-31,-72
2116,813,716,885,752,165,17152,-2232,1152,-574,-43,-83
2119,805,718,893,749,165,17096,-2220,1224,-582,-21,-82
2122,806,738,883,752,166,17080,-2224,1160,-582,-49,-81
2125,809,710,882,747,163,17016,-2292,1116,-613,-54,-119
2128,807,707,883,752,167,17076,-2276,1100,-601,-71,-97
2131,810,714,895,746,161,16988,-2312,1184,-630,-90,-137
2134,814,711,887,751,162,17156,-2264,1124,-654,-115,-111
2137,816,714,885,751,163,17052,-2164,1352,-683,-100,-115
2140,810,717,881,752,165,17060,-2308,1176,-692,-117,-104
2143,810,720,889,754,166,17048,-2244,1068,-766,-105,-124
2146,810,714,890,755,167,17052,-2252,1164,-818,-130,-98
2149,805,715,881,755,170,17084,-2084,1236,-835,-137,-122
2152,807,710,887,755,161,17088,-2168,1208,-821,-130,-99
2155,811,711,887,752,166,17060,-2172,1160,-833,-143,-99
2158,811,708,890,753,174,17096,-2204,1244,-834,-142,-131
2161,808,709,895,749,167,17088,-2184,1216,-816,-119,-124
2164,805,704,887,748,165,17132,-2096,1260,-821,-138,-142
2167,806,710,881,749,169,17064,-2128,1140,-810,-135,-142
2170,816,717,887,753,166,17040,-2136,1292,-803,-107,-153
2173,809,720,887,752,164,17044,-2124,1252,-795,-101,-135
2176,811,720,886,755,166,17144,-2112,1196,-797,-88,-135
2179,810,720,881,752,161,17060,-2196,1172,-792,-77,-126
2182,811,725,880,752,167,17148,-2108,1352,-765,-62,-148
2185,811,722,886,751,165,17072,-2136,1128,-784,-70,-150
2188,811,723,883,752,162,17188,-2200,1280,-756,-50,-121
2191,814,719,885,758,161,17108,-2104,1192,-797,-18,-116
2194,816,720,880,752,162,16972,-2108,1292,-797,-29,-119
2197,811,727,880,753,163,17020,-2112,1184,-818,-29,-125
2200,813,723,884,752,166,17148,-2100,1052,-825,-53,-130
2203,813,720,882,751,173,17140,-2124,1164,-847,-76,-158
2206,813,725,882,751,171,17084,-2184,1140,-859,-76,-135
2209,810,726,883,747,167,17028,-2216,1280,-878,-109,-138
2212,814,716,881,743,166,17120,-2280,1176,-882,-100,-127
2215,810,726,887,741,167,17112,-2204,1192,-895,-119,-150
2218,811,721,881,743,169,17028,-2236,1212,-894,-92,-132
2221,807,721,883,739,167,17008,-2080,1256,-908,-98,-134
2224,814,720,882,735,167,16988,-2188,1236,-925,-77,-151
2227,799,722,879,735,165,17128,-2184,1264,-907,-94,-107
2230,803,717,883,734,165,17032,-2188,1160,-941,-91,-128
2233,797,720,889,732,166,17188,-2048,1192,-923,-63,-125
2236,804,717,887,729,167,17112,-2176,1216,-914,-89,-108
2239,807,720,888,729,169,17116,-2132,1104,-940,-96,-124
2242,811,717,886,727,175,17096,-2172,1216,-916,-99,-104
2245,801,718,885,727,169,17084,-2080,1200,-939,-88,-103
2248,816,717,882,726,169,17064,-2196,1180,-921,-101,-130
2251,813,715,883,727,168,17196,-2108,1120,-919,-108,-100
2254,813,720,886,729,168,17132,-2172,1104,-938,-67,-125
2257,816,720,885,726,169,17080,-2204,1184,-948,-100,-97
2260,816,720,880,727,164,17012,-2220,1148,-961,-42,-94
2263,816,720,883,727,174,17080,-2176,1032,-970,-56,-83
2266,814,720,880,729,167,17060,-2328,1256,-973,-18,-89
2269,814,722,881,736,166,16948,-2220,1232,-962,-27,-123
2272,807,720,880,731,171,17084,-2180,976,-955,-42,-92
2275,814,724,890,730,163,17084,-2152,1184,-958,-58,-83
2278,814,721,889,731,166,17028,-2132,1156,-974,-35,-91
2281,814,720,880,735,170,17004,-2160,1296,-954,-64,-100
2284,811,720,891,735,167,17036,-2224,1308,-958,-23,-87
2287,809,720,891,735,167,16996,-2292,1040,-955,-26,-88
2290,810,731,891,729,169,17016,-2228,1040,-949,-33,-68
2293,810,717,885,729,167,17108,-2344,1108,-940,-47,-79
2296,813,713,885,734,171,17084,-2248,1152,-946,-31,-104
2299,814,717,883,726,166,16928,-2216,1232,-987,-49,-78
2302,807,711,887,732,169,16964,-2280,1096,-1000,-74,-74
2305,807,718,886,725,169,17200,-2236,1220,-1029,-98,-84
2308,811,715,893,727,173,17108,-2316,1272,-1054,-96,-76
2311,816,717,880,726,172,17140,-2204,1244,-1043,-104,-70
2314,815,716,885,730,174,17012,-2300,1188,-1045,-62,-35
2317,807,720,893,724,171,17156,-2192,1200,-1049,-112,-49
2320,813,707,887,724,163,17024,-2344,1104,-1034,-91,-68
2323,816,715,890,721,166,17016,-2224,1040,-1001,-85,-56
2326,810,715,884,725,173,17104,-2316,1128,-1009,-78,-79
2329,813,718,889,714,170,17072,-2284,1156,-1004,-67,-84
2332,811,718,887,720,169,17076,-2324,1112,-1008,-101,-80
2335,812,718,893,725,170,17048,-2324,1080,-1032,-72,-52
2338,809,716,886,721,169,17020,-2248,1156,-1039,-103,-61
2341,810,715,890,721,167,16936,-2324,1188,-1019,-100,-86
2344,808,716,889,723,169,17000,-2240,1140,-996,-68,-43
2347,807,717,889,721,169,16992,-2260,1268,-942,-52,-60
2350,807,718,885,720,170,17096,-2232,1224,-870,-6,-28
2353,805,710,895,720,173,17096,-2336,1300,-848,-28,-61
2356,804,717,881,717,167,17052,-2252,1264,-813,-3,-32
2359,810,715,887,720,166,17012,-2252,1388,-743,-17,-51
2362,806,715,884,722,170,17064,-2228,1224,-744,-27,-32
2365,805,714,882,720,163,17128,-2304,1200,-733,-49,-22
2368,811,709,886,720,170,17120,-2304,1140,-725,-54,-41
2371,810,708,881,724,165,17120,-2296,1112,-769,-79,-5
2374,810,704,885,723,165,17076,-2316,1236,-750,-66,-23
2377,809,702,883,723,163,17140,-2264,1268,-779,-81,-30
2380,805,703,886,726,163,17096,-2364,1260,-761,-61,-37
2383,801,704,890,720,163,17080,-2308,1232,-747,-106,-56
2386,812,708,887,721,167,17144,-2236,1328,-768,-123,-73
2389,807,709,890,723,167,17036,-2264,1248,-755,-88,-83
2392,816,710,892,720,164,17104,-2192,1284,-765,-132,-120
2395,813,710,891,720,163,17036,-2316,1288,-728,-119,-94
2398,821,704,889,721,167,17124,-2140,1308,-771,-140,-92
2401,815,704,898,722,169,17112,-2172,1288,-715,-120,-77
2404,814,709,886,721,166,17048,-2144,1388,-721,-103,-84
2407,806,709,889,726,161,17144,-2220,1304,-694,-52,-112
2410,811,713,889,724,165,17068,-2236,1208,-708,-83,-114
2413,809,715,880,726,161,17092,-2280,1228,-730,-63,-123
2416,811,711,880,730,166,17112,-2116,1280,-728,-39,-103
2419,816,711,891,723,160,17056,-2144,1196,-701,-18,-83
2422,809,714,881,727,165,17220,-2144,1280,-719,-18,-98
2425,810,720,882,727,162,17152,-2156,1320,-725,-7,-95
2428,821,720,881,725,161,17072,-2216,1308,-699,37,-118
2431,810,720,886,730,162,17084,-2096,1084,-738,20,-131
2434,809,720,881,725,163,17136,-2192,1124,-722,57,-145
2437,810,714,883,723,165,17100,-2208,1100,-750,57,-126
2440,807,720,881,725,165,17144,-2116,1228,-742,40,-149
2443,816,715,885,729,169,17140,-2200,1256,-769,27,-159
2446,808,719,884,720,165,17108,-2184,1140,-758,71,-165
2449,807,717,895,727,171,17200,-2172,1176,-769,14,-166
2452,800,711,887,722,166,17064,-2192,1248,-766,43,-174
2455,806,709,885,720,165,17220,-2332,1248,-750,8,-190
2458,810,711,890,721,166,17112,-2156,1264,-752,33,-204
2461,805,715,891,720,170,17156,-2204,1368,-708,36,-234
2464,806,715,881,720,167,17168,-2104,1188,-714,24,-228
2467,806,717,885,723,172,17092,-2236,1240,-681,4,-223
2470,806,715,886,720,169,17152,-2208,1432,-667,69,-252
2473,831,713,884,720,168,17168,-2244,1280,-664,3,-231
2476,811,709,879,725,169,17092,-2200,1252,-657,54,-237
2479,806,707,882,714,170,17180,-2160,1272,-654,28,-244
2482,813,704,883,719,168,17160,-2224,1264,-632,3,-268
2485,814,709,887,720,171,17040,-2260,1224,-619,-25,-281
2488,811,713,886,717,169,17052,-2180,1204,-613,3,-264
2491,811,717,886,720,166,17080,-2300,1240,-584,-57,-275
2494,807,711,884,723,174,17024,-2264,1076,-574,-103,-273
2497,811,715,890,720,171,17008,-2292,1244,-563,-76,-252
2500,813,711,879,720,166,16996,-2188,972,-561,-82,-230
2503,816,718,884,727,169,16956,-2276,1136,-553,-62,-252
2506,809,720,881,723,170,17088,-2212,1200,-567,-57,-223
2509,812,720,883,723,173,17148,-2164,1172,-544,-44,-231
2512,814,720,885,722,163,17028,-2288,1380,-525,-18,-193
2515,816,720,880,723,166,17048,-2152,1296,-488,-31,-169
2518,813,717,886,734,170,17040,-2128,1284,-490,-52,-173
2521,815,738,876,720,162,17032,-2076,1100,-501,-17,-179
2524,811,719,880,720,164,17104,-2148,1240,-502,-60,-143
2527,810,718,890,719,167,17080,-2072,1268,-509,-37,-167
2530,815,720,882,720,164,16992,-2068,1348,-543,-73,-126
2533,807,720,881,719,162,16984,-2056,1368,-567,-54,-147
2536,816,719,874,719,158,17040,-1976,1380,-554,-66,-110
2539,815,720,880,720,161,17104,-2032,1304,-584,-47,-110
2542,817,720,885,719,160,17036,-2068,1432,-598,-83,-115
2545,819,723,882,730,159,17072,-1908,1344,-627,-93,-116
2548,831,729,880,721,161,17140,-1956,1284,-650,-110,-105
2551,817,722,886,719,164,17068,-1952,1404,-687,-155,-123
2554,816,731,895,720,162,17020,-1896,1280,-679,-107,-117
2557,814,723,880,717,165,17076,-2000,1424,-694,-118,-133
2560,810,720,880,721,167,17204,-2012,1344,-675,-131,-112
2563,810,727,885,720,163,17160,-1956,1236,-678,-116,-137
2566,810,727,891,718,166,17204,-1960,1300,-704,-103,-122
2569,812,732,882,720,163,17220,-1936,1200,-702,-51,-132
2572,813,726,882,719,164,17208,-1936,1220,-719,-45,-162
2575,807,723,884,713,160,17160,-1976,1252,-753,-18,-133
2578,809,722,883,718,163,17096,-1984,1232,-734,-28,-164
2581,806,720,882,721,159,17176,-2048,1228,-772,-27,-168
2584,807,718,882,720,159,17200,-1980,1268,-767,-28,-183
2587,805,718,880,721,157,17096,-1940,1200,-768,-22,-163
2590,811,720,880,727,160,17168,-2008,1328,-791,-15,-180
2593,807,720,886,722,163,17144,-2120,1264,-784,16,-157
2596,810,720,883,720,162,17148,-2024,1236,-825,17,-164
2599,808,719,889,720,161,17104,-2100,1244,-875,34,-144
2602,810,721,880,721,166,17112,-2040,1072,-893,11,-181
2605,814,720,883,720,166,17168,-2028,1204,-925,16,-163
2608,807,720,886,721,162,17124,-2092,1076,-975,36,-157
2611,816,720,885,721,161,17080,-2052,1204,-992,59,-167
2614,816,720,886,723,164,17112,-2000,1252,-1015,23,-182
2617,815,714,882,730,163,17116,-2068,1164,-1027,46,-159
2620,816,721,885,730,162,16992,-1916,1204,-1040,17,-163
2623,816,746,879,727,166,17148,-1912,1300,-1034,27,-173
2626,813,726,882,720,170,17208,-1948,1300,-1054,8,-193
2629,813,730,885,727,167,17180,-1896,1200,-1028,34,-191
2632,814,730,886,725,169,17152,-1916,1296,-1001,-6,-180
2635,812,727,886,721,163,17060,-2008,1456,-1049,42,-171
2638,811,732,882,723,171,17104,-2036,1416,-1047,22,-179
2641,810,731,883,720,168,17196,-1984,1260,-1094,12,-194
2644,812,733,886,720,167,17084,-2044,1208,-1063,7,-180
2647,815,734,880,724,164,17072,-2104,1336,-1088,32,-139
2650,816,735,883,716,171,17052,-2088,1276,-1084,24,-176
2653,813,726,880,720,162,17092,-1988,1276,-1102,16,-171
2656,815,732,880,720,167,17112,-2068,1240,-1085,8,-154
2659,822,733,880,717,172,17176,-2060,1336,-1080,9,-149
2662,816,735,880,712,162,17028,-2044,1420,-1072,39,-155
2665,817,733,885,709,168,17076,-2008,1252,-1053,45,-124
2668,814,730,883,706,166,17156,-2108,1200,-1036,13,-127
2671,816,735,884,704,168,17044,-2052,1292,-1054,41,-115
2674,816,734,887,709,169,17136,-2180,1112,-1074,31,-98
2677,824,735,879,719,167,17068,-2160,1160,-1078,67,-117
2680,828,734,885,715,171,17184,-2076,1196,-1138,41,-80
2683,814,724,886,717,167,17188,-2132,1236,-1169,52,-70
2686,816,719,881,717,163,17168,-2096,1196,-1181,71,-48
2689,810,716,885,714,170,17068,-2128,1096,-1163,68,-76
2692,816,719,880,717,161,16932,-2148,1088,-1195,92,-88
2695,816,718,885,715,169,17016,-2144,1064,-1181,54,-82
2698,815,717,881,716,164,16996,-2236,1148,-1216,35,-119
2701,811,720,885,720,167,17028,-2176,1316,-1270,-16,-87
2704,806,725,880,724,169,17068,-2204,1220,-1294,-42,-103
2707,814,723,887,720,169,17060,-2212,1168,-1291,-80,-110
2710,811,723,890,721,163,17016,-2136,1312,-1314,-58,-84
2713,812,720,886,725,165,17152,-2040,1388,-1294,-26,-91
2716,816,726,882,737,164,17112,-2068,1428,-1244,-4,-73
2719,813,726,885,721,162,17152,-2084,1240,-1290,-1,-74
2722,810,734,881,723,172,17096,-2052,1192,-1244,51,-51
2725,812,735,880,729,170,17132,-1988,1312,-1273,42,-64
2728,811,730,887,715,162,17112,-2028,1192,-1274,93,-70
2731,813,725,884,706,167,17036,-2000,1112,-1221,88,-79
2734,817,723,881,711,170,17024,-2032,1184,-1236,66,-68
2737,816,726,885,713,166,17116,-2112,1096,-1234,64,-62
2740,817,731,882,705,165,17016,-2180,1252,-1248,74,-78
2743,816,725,880,705,167,17088,-2164,1140,-1259,87,-38
2746,817,731,881,706,167,17052,-2096,1108,-1264,85,-68
2749,816,725,881,702,165,16980,-2232,1108,-1306,81,-29
2752,817,726,880,701,167,17064,-2172,1148,-1317,63,-36
2755,813,730,881,707,176,17052,-2216,1276,-1349,54,-48
2758,814,723,883,703,176,17036,-2204,1196,-1365,68,-31
2761,818,720,883,702,173,16996,-2244,1312,-1313,70,-41
2764,817,724,887,700,170,17028,-2176,1216,-1308,22,-52
2767,816,720,896,703,175,17100,-2180,1140,-1305,58,-33
2770,816,720,886,702,170,17096,-2164,1132,-1299,77,-24
2773,813,722,881,701,167,17080,-2260,1016,-1269,111,-32
2776,811,721,884,697,169,17056,-2284,1136,-1270,89,-10
2779,814,720,885,704,173,17132,-2276,1384,-1247,79,-40
2782,811,720,880,714,167,17064,-2252,1256,-1242,46,-8
2785,806,725,881,711,173,17000,-2184,1316,-1225,-1,-22
2788,815,725,885,718,175,17080,-2296,1420,-1244,-16,-12
2791,813,720,887,717,170,17084,-2216,1260,-1205,-37,-37
2794,803,724,881,719,169,17152,-2208,1276,-1163,-53,-41
2797,807,720,883,715,167,17076,-2184,1204,-1150,-53,-26
2800,804,720,886,713,167,17180,-2120,1244,-1094,-40,-28
2803,806,720,883,715,161,17160,-2220,1320,-1086,16,-34
2806,802,720,887,714,167,17060,-2232,1176,-1076,-8,-43
2809,811,722,880,715,164,17028,-2220,1104,-1084,3,-23
2812,813,721,895,713,165,17084,-2172,1248,-1079,-2,-35
2815,816,730,883,717,162,17088,-2272,1112,-1093,23,-70
2818,815,720,890,719,169,17100,-2140,1140,-1060,34,-46
2821,810,729,893,720,170,17108,-2316,1152,-1084,-18,-54
2824,820,722,880,720,167,17072,-2208,1040,-1071,-8,-47
2827,812,725,886,725,171,17064,-2256,1116,-1074,-11,-59
2830,814,722,882,721,166,17028,-2320,1200,-1076,-12,-86
2833,816,722,882,721,167,17092,-2184,1144,-1058,-19,-58
2836,816,720,886,727,165,16968,-2184,1176,-1056,-21,-63
2839,812,722,882,726,167,16980,-2140,1140,-1048,-43,-79
2842,804,719,881,733,169,17052,-2164,1108,-1034,-24,-71
2845,813,721,890,726,166,17040,-2132,1200,-1019,-13,-65
2848,813,722,889,729,173,17072,-2096,1236,-1053,38,-87
2851,813,721,882,731,169,17172,-2168,1244,-994,-20,-65
2854,810,725,891,726,170,17168,-2152,1208,-1015,33,-58
2857,804,720,889,729,170,17196,-2072,1324,-989,23,-66
2860,809,722,907,727,170,17068,-2096,1292,-1004,29,-67
2863,808,723,883,727,170,17084,-2104,1320,-1005,83,-64
2866,814,720,880,734,167,17168,-2072,1264,-994,78,-58
2869,819,720,883,725,172,17180,-2068,1276,-1036,68,-72
2872,805,719,880,731,164,17140,-2072,1092,-1034,68,-71
2875,807,723,884,725,166,17220,-2152,1264,-1047,40,-67
2878,804,716,887,737,164,17140,-2136,1400,-1064,30,-62
2881,808,720,886,729,168,17196,-2112,1216,-1073,40,-83
2884,803,719,891,735,166,17172,-2108,1336,-1025,41,-74
2887,800,720,889,730,166,17080,-2144,1348,-1016,50,-120
2890,805,718,886,733,167,17076,-2252,1260,-1029,63,-91
2893,805,720,883,734,170,17056,-2316,1248,-1003,43,-98
2896,810,721,887,729,171,17144,-2088,1260,-933,61,-119
2899,811,718,882,727,166,17088,-2132,1220,-923,14,-120
2902,814,716,882,727,165,17008,-2108,1236,-888,23,-144
2905,797,718,885,725,163,17072,-2272,1244,-822,39,-155
2908,813,717,884,727,162,17072,-2020,1348,-773,41,-173
2911,808,717,887,725,165,17092,-2104,1148,-722,47,-186
2914,807,723,881,731,172,17096,-2092,1072,-699,82,-172
2917,807,710,880,733,169,17120,-2260,1164,-717,62,-219
2920,814,721,887,725,164,17080,-2144,1268,-707,87,-198
2923,806,718,885,730,171,17076,-2164,1212,-752,101,-209
2926,811,734,880,734,170,17148,-2260,1248,-793,120,-194
2929,803,718,880,741,164,17132,-2184,1200,-837,98,-204
2932,809,720,881,739,165,17128,-2168,1140,-835,131,-211
2935,811,717,880,749,166,17284,-2308,1108,-838,127,-210
2938,816,722,878,743,169,17012,-2228,1080,-895,111,-217
2941,816,720,880,749,163,17132,-2228,1076,-880,139,-220
2944,812,720,875,768,166,17124,-2272,1064,-902,93,-234
2947,811,721,881,752,168,17188,-2300,1040,-932,83,-248
2950,813,729,879,750,166,17124,-2320,1028,-949,63,-219
2953,816,727,879,749,173,17104,-2216,1056,-938,40,-244
2956,816,731,887,750,171,17184,-2184,1112,-978,22,-238
2959,815,729,880,751,170,17156,-2292,1240,-971,32,-248
2962,814,734,884,747,169,17128,-2224,1160,-973,57,-259
2965,814,727,880,743,173,17172,-2288,1208,-965,46,-251
2968,816,728,883,741,173,17076,-2336,1156,-961,83,-246
2971,816,725,881,746,169,17124,-2156,1116,-948,92,-255
2974,812,723,882,738,170,17060,-2188,1096,-899,124,-239
2977,811,722,884,742,169,17072,-2164,1232,-897,152,-254
2980,813,727,881,738,174,17148,-2228,1148,-877,186,-234
2983,806,720,878,737,171,16964,-2192,1104,-817,162,-240
2986,803,723,880,736,170,17080,-2208,1316,-799,179,-244
2989,806,720,883,737,173,16984,-2256,1144,-779,209,-226
2992,811,721,887,731,171,16920,-2236,1080,-752,187,-204
2995,811,723,883,727,174,16984,-2244,1100,-714,175,-191
2998,813,723,881,726,176,16972,-2300,1204,-703,152,-222
3001,804,719,885,723,171,17000,-2216,1348,-665,127,-210
3004,797,720,886,725,176,16968,-2184,1188,-642,107,-220
3007,803,723,892,734,170,16964,-2316,1244,-605,80,-210
3010,810,720,885,725,173,16980,-2172,1336,-557,100,-243
3013,812,720,887,729,170,16992,-2184,1264,-544,66,-208
3016,815,720,886,727,171,17032,-2096,1348,-510,66,-234
3019,807,722,885,729,171,17020,-2300,1160,-505,28,-209
3022,805,720,883,722,172,17096,-2276,1344,-501,48,-233
3025,813,722,885,720,170,17044,-2316,1132,-502,5,-209
3028,807,721,881,722,167,17020,-2280,1204,-520,15,-249
3031,811,725,883,726,172,17072,-2320,992,-510,-51,-227
3034,816,723,895,723,174,17096,-2328,1268,-518,-89,-219
3037,813,723,880,722,166,17040,-2288,1292,-492,-69,-248
3040,811,738,884,723,170,17144,-2280,1176,-483,-44,-215
3043,815,726,887,724,171,17080,-2268,1132,-470,-51,-185
3046,813,723,881,720,170,17136,-2208,964,-470,-92,-205
3049,822,729,887,721,165,17052,-2224,1200,-447,-54,-168
3052,816,721,880,727,161,16968,-2300,1108,-430,-45,-192
3055,815,721,880,718,170,17032,-2248,1108,-415,-53,-175
3058,817,721,882,720,166,17028,-2204,1216,-480,-46,-147
3061,813,722,885,720,163,17048,-2152,1136,-440,-22,-151
3064,816,720,887,714,170,16964,-2204,1304,-439,-40,-149
3067,809,721,887,718,169,17036,-2132,1112,-398,-8,-116
3070,817,723,883,720,166,17100,-2224,1232,-383,-13,-131
3073,811,719,880,718,169,17052,-2204,1152,-360,-15,-123
3076,811,720,880,717,166,17000,-2112,1420,-380,-4,-115
3079,805,715,880,707,165,17072,-2072,1192,-361,12,-108
3082,803,715,885,707,165,17156,-2028,1328,-356,12,-77
3085,811,717,886,708,163,17132,-1976,1316,-369,-5,-104
3088,809,719,889,708,167,17112,-2036,1424,-393,-12,-79
3091,805,720,891,707,166,16984,-1956,1436,-423,41,-47
3094,804,720,883,715,163,17052,-2012,1460,-448,10,-94
3097,803,719,890,718,164,17052,-1940,1328,-489,19,-65
3100,802,720,889,720,167,17168,-1988,1296,-551,0,-52
3103,801,715,887,719,166,17036,-1904,1328,-535,5,-74
3106,807,720,890,721,169,17168,-1912,1144,-575,-33,-46
3109,791,721,886,720,165,17112,-1960,1100,-579,-36,-54
3112,801,720,908,719,163,17068,-1980,1244,-592,-42,-66
3115,802,720,885,719,167,17160,-1896,1228,-592,-59,-53
3118,811,720,885,719,171,17136,-1884,1204,-636,-75,-50
3121,806,722,883,718,165,17120,-1948,1212,-625,-60,-79
3124,805,724,887,719,166,17240,-1940,1356,-662,-24,-71
3127,807,721,882,718,166,17008,-1968,1188,-633,-34,-68
3130,821,721,883,720,169,17060,-1952,1344,-643,-23,-80
3133,809,718,887,721,172,17136,-1880,1352,-678,-13,-70
3136,811,720,887,720,167,17132,-1928,1396,-654,2,-63
3139,813,721,887,722,166,17180,-1848,1352,-665,6,-68
3142,813,720,890,723,168,17136,-1852,1472,-620,-8,-73
3145,810,715,883,724,168,17084,-1948,1412,-678,-2,-76
3148,815,709,891,720,166,17064,-1848,1336,-653,36,-79
3151,809,720,884,725,167,17160,-1836,1468,-654,-7,-108
3154,810,721,885,720,165,17032,-1844,1356,-652,7,-73
3157,814,726,882,730,168,17036,-1820,1524,-648,29,-73
3160,812,725,886,721,165,17060,-1692,1492,-659,76,-98
3163,816,725,894,720,163,17140,-1816,1516,-651,62,-81
3166,806,727,887,722,163,17120,-1872,1384,-667,88,-96
3169,805,730,897,722,164,17060,-1828,1444,-647,76,-89
3172,803,723,882,731,171,17100,-1780,1512,-641,103,-100
3175,804,725,890,726,166,17108,-1888,1572,-662,85,-113
3178,807,730,886,727,167,17168,-1800,1456,-675,76,-97
3181,798,723,893,730,167,17132,-1792,1616,-680,73,-130
3184,797,723,883,738,167,17096,-1816,1304,-690,88,-144
3187,800,726,891,733,173,17148,-1824,1300,-709,98,-109
3190,806,725,893,739,176,17204,-1776,1284,-736,80,-156
3193,802,727,888,738,167,17096,-1744,1340,-792,63,-155
3196,809,731,887,752,171,17176,-1916,1116,-806,42,-122
3199,811,727,891,733,167,17116,-1928,1384,-778,59,-176
3202,811,730,889,729,175,17224,-1936,1188,-841,43,-160
3205,811,723,884,734,171,17136,-1920,1364,-842,39,-183
3208,811,749,887,734,172,17136,-1836,1372,-831,78,-185
3211,811,737,883,732,172,17180,-1900,1332,-777,67,-218
3214,816,727,890,727,173,17272,-1936,1096,-789,75,-192
3217,817,731,882,733,167,17212,-1908,1344,-735,80,-214
3220,812,714,887,731,171,17104,-1872,1268,-751,99,-230
3223,816,724,885,731,176,17136,-1896,1232,-736,79,-235
3226,818,720,881,736,176,17072,-1824,1452,-752,115,-244
3229,816,726,883,729,171,17144,-1804,1316,-773,109,-242
3232,818,730,883,730,174,17188,-1796,1420,-787,129,-262
3235,816,725,907,732,176,17224,-1800,1348,-800,117,-257
3238,813,728,887,731,175,17172,-1852,1304,-832,128,-225
3241,802,727,887,738,173,17316,-1880,1520,-803,162,-240
3244,811,730,884,734,176,17272,-1816,1436,-839,171,-263
3247,819,730,883,729,174,17164,-1836,1484,-852,176,-238
3250,809,732,887,728,174,17112,-1848,1392,-817,195,-257
3253,814,728,890,733,176,17132,-1840,1320,-815,162,-268
3256,813,729,880,731,173,17224,-1904,1408,-828,160,-284
3259,816,723,885,742,174,17208,-1876,1412,-866,163,-294
3262,816,721,880,736,171,17184,-1844,1496,-869,167,-310
3265,810,726,884,739,169,17108,-1840,1524,-891,176,-315
3268,813,729,879,738,176,17144,-1892,1528,-940,220,-246
3271,814,725,880,743,176,17204,-1996,1364,-971,209,-291
3274,814,729,879,737,174,17208,-1884,1596,-975,212,-266
3277,815,726,881,734,174,17152,-1848,1392,-1005,187,-298
3280,811,731,883,727,174,17164,-1792,1392,-1004,180,-269
3283,815,735,882,729,176,17120,-1900,1460,-1021,206,-296
3286,809,732,892,721,172,17192,-1860,1328,-1005,208,-298
3289,814,734,883,725,175,17140,-1964,1228,-998,205,-292
3292,814,736,878,720,168,17088,-2064,1484,-1020,196,-280
3295,812,734,880,720,176,17200,-1972,1280,-1022,228,-281
3298,816,734,885,720,172,17132,-2060,1416,-1028,191,-292
3301,815,741,883,720,176,17168,-1968,1256,-1025,228,-268
3304,815,733,889,720,175,17188,-2004,1280,-1056,216,-267
3307,814,738,881,720,176,17084,-1972,1380,-1035,229,-247
3310,816,738,880,720,176,17152,-2012,1380,-1019,188,-281
3313,816,738,881,720,176,17148,-1964,1320,-995,224,-262
3316,813,735,883,718,170,17068,-1896,1364,-997,181,-276
3319,813,727,883,720,175,17036,-1904,1468,-1014,151,-246
3322,816,731,883,718,175,17148,-1876,1588,-1041,148,-219
3325,816,725,881,720,171,17104,-1896,1464,-1040,154,-240
3328,813,720,880,719,174,17084,-1932,1444,-995,174,-228
3331,810,720,880,723,173,17140,-1840,1508,-1016,169,-223
3334,803,724,880,722,176,17096,-1832,1428,-1016,187,-239
3337,812,730,880,723,176,17036,-1904,1312,-1005,152,-260
3340,811,723,880,726,169,16992,-1852,1276,-1004,137,-228
3343,816,726,882,735,169,17068,-1916,1564,-998,125,-262
3346,816,726,881,737,175,17032,-1852,1392,-1018,102,-230
3349,812,723,882,751,169,16992,-1928,1328,-1009,124,-245
3352,816,720,880,737,174,17008,-1960,1376,-1064,105,-220
3355,816,726,881,733,169,17052,-1936,1356,-1023,136,-198
3358,814,722,882,734,177,17144,-1964,1344,-1010,112,-205
3361,816,725,880,725,173,17024,-1932,1300,-1024,106,-199
3364,814,724,885,723,174,17124,-1904,1412,-1016,113,-193
3367,816,726,889,723,171,17004,-1964,1552,-1030,110,-176
3370,810,722,883,722,176,16984,-1916,1412,-1041,140,-178
3373,816,723,883,719,176,17104,-1956,1404,-1052,99,-157
3376,815,721,881,720,177,17180,-1964,1308,-1078,146,-168
3379,816,724,882,720,174,17024,-1916,1332,-1044,116,-164
3382,814,726,881,720,171,17036,-1952,1592,-1093,86,-156
3385,816,735,894,720,176,17052,-1964,1508,-1079,69,-129
3388,815,734,880,714,176,17072,-1996,1388,-1122,93,-134
3391,813,730,886,716,176,17004,-1900,1456,-1177,50,-146
3394,816,731,883,720,173,17024,-2016,1388,-1178,95,-119
3397,811,727,880,718,176,17052,-1944,1548,-1175,35,-118
3400,808,727,885,715,173,17092,-1968,1360,-1221,55,-101
3403,803,724,880,714,171,17080,-1836,1460,-1189,71,-96
3406,809,722,881,713,173,17036,-2008,1484,-1185,64,-70
3409,806,726,886,707,171,17032,-1980,1268,-1199,74,-54
3412,811,726,889,719,167,17044,-2032,1516,-1187,95,-42
3415,810,725,883,717,175,17000,-2008,1504,-1205,52,-49
3418,801,721,887,720,174,17060,-1948,1432,-1171,59,-33
3421,808,724,883,717,173,17000,-1964,1456,-1173,74,-12
3424,811,731,885,721,176,16972,-1960,1384,-1200,40,-7
3427,810,727,885,721,172,17088,-1964,1452,-1166,40,1
3430,811,726,880,722,174,17084,-2024,1492,-1190,48,26
3433,809,721,886,721,170,17044,-1908,1592,-1186,37,19
3436,805,726,883,724,173,16968,-1880,1524,-1206,53,35
3439,807,721,892,727,173,16944,-1948,1516,-1153,34,41
3442,805,726,886,724,176,17040,-2004,1468,-1156,31,71
3445,801,745,893,720,176,17040,-1944,1436,-1176,39,83
3448,813,720,894,730,176,17088,-1912,1556,-1149,84,95
3451,801,722,890,727,173,17112,-1924,1492,-1163,81,95
3454,800,730,892,726,176,17076,-1928,1564,-1190,69,98
3457,798,720,890,726,170,17100,-2016,1552,-1224,55,121
3460,806,724,887,735,174,17092,-1896,1336,-1245,40,109
3463,803,723,883,735,173,17228,-1944,1532,-1270,56,121
3466,813,721,886,735,174,17168,-1988,1368,-1293,41,130
3469,804,720,890,734,174,17088,-1948,1352,-1303,45,113
3472,809,720,894,731,175,17044,-2004,1456,-1297,9,153
3475,811,715,890,732,176,17076,-1924,1428,-1274,10,128
3478,810,713,892,731,175,17136,-1876,1608,-1269,31,110
3481,805,717,889,733,176,17084,-1960,1512,-1281,17,116
3484,802,713,886,731,177,17108,-1984,1580,-1293,8,98
3487,813,718,890,726,176,17236,-1892,1496,-1263,3,120
3490,809,720,889,736,176,17144,-2008,1644,-1282,14,75
3493,810,718,886,732,172,17208,-1812,1416,-1302,35,89
3496,804,720,884,735,175,17160,-1908,1564,-1277,45,58
3499,813,720,884,733,172,17232,-1860,1396,-1287,60,53
3502,811,721,884,735,176,17208,-1860,1452,-1294,72,65
3505,813,719,885,735,174,17264,-1864,1380,-1277,66,45
3508,809,722,883,734,177,17156,-1972,1552,-1287,100,22
3511,811,722,883,734,174,17232,-1884,1496,-1275,74,-12
3514,814,729,882,733,176,17204,-1992,1484,-1302,91,-15
3517,809,727,890,734,176,17132,-2004,1456,-1254,72,-3
3520,805,724,881,734,174,17132,-1940,1596,-1274,66,-36
3523,813,720,887,738,171,17128,-1964,1492,-1237,66,-47
3526,811,729,883,735,173,17228,-2012,1556,-1255,105,-62
3529,816,720,882,732,174,17260,-1992,1432,-1224,82,-82
3532,814,727,883,732,172,17260,-2012,1480,-1244,109,-72
3535,811,729,880,734,173,17208,-1924,1468,-1262,88,-76
3538,814,727,881,733,175,17232,-1992,1480,-1264,71,-112
3541,816,731,882,735,172,17220,-2028,1512,-1270,93,-104
3544,816,730,880,726,171,17148,-1932,1504,-1269,66,-149
3547,812,731,881,727,173,17264,-1888,1380,-1260,81,-153
3550,815,734,900,735,171,17248,-2052,1456,-1267,108,-142
3553,817,730,880,723,175,17136,-1920,1248,-1249,129,-159
3556,818,738,880,721,174,17064,-2028,1388,-1245,153,-163
3559,809,737,881,720,176,17236,-1992,1352,-1197,164,-173
3562,814,733,879,720,174,17160,-2028,1436,-1178,202,-153
3565,817,734,880,720,172,17060,-1984,1472,-1170,212,-186
3568,805,729,880,722,176,17180,-2028,1532,-1158,205,-166
3571,812,733,880,727,176,17008,-2056,1380,-1156,225,-193
3574,815,738,880,727,171,17108,-2016,1396,-1176,209,-203
3577,815,734,880,727,169,17064,-2040,1452,-1145,188,-158
3580,813,730,884,730,171,16932,-2028,1444,-1163,174,-162
3583,814,731,878,732,174,17028,-2148,1436,-1119,170,-177
3586,812,729,879,734,166,17148,-2140,1448,-1124,173,-179
3589,813,737,880,736,170,17040,-2132,1396,-1140,150,-184
3592,809,731,885,730,173,16992,-2040,1528,-1104,156,-210
3595,810,729,881,731,174,17148,-2164,1360,-1100,127,-216
3598,809,731,880,732,169,16992,-2156,1384,-1097,104,-201
3601,813,727,881,731,168,17080,-2184,1248,-1061,81,-185
3604,816,729,882,730,170,17076,-2188,1404,-1121,38,-206
3607,812,725,881,727,167,16964,-2112,1340,-1080,27,-203
3610,816,727,880,733,173,17112,-2152,1356,-1062,-14,-221
3613,819,732,883,727,167,17108,-2068,1332,-1056,-7,-223
3616,815,727,880,727,166,17104,-2168,1404,-1067,-13,-215
3619,816,725,880,736,170,17112,-2208,1404,-1046,-12,-216
3622,816,730,886,730,169,17016,-2044,1304,-1061,18,-236
3625,818,737,880,726,170,17080,-2088,1264,-1074,33,-179
3628,813,734,883,730,169,17128,-2144,1268,-1052,39,-201
3631,813,730,880,729,170,17160,-2080,1264,-1071,58,-175
3634,809,727,883,732,168,17156,-2152,1504,-1082,91,-194
3637,814,729,882,720,163,17128,-2012,1452,-1078,98,-135
3640,810,723,881,720,165,17156,-2048,1348,-1052,121,-144
3643,814,729,880,720,173,17088,-1936,1524,-1042,156,-145
3646,812,727,882,722,171,17072,-1976,1520,-1041,166,-136
3649,813,726,880,725,164,17172,-1968,1452,-1026,151,-152
3652,816,731,884,721,162,17076,-2064,1328,-1000,183,-113
3655,798,730,880,723,165,17028,-2096,1272,-1036,176,-119
3658,815,729,883,722,170,17060,-1972,1300,-1052,186,-92
3661,815,727,880,723,163,16996,-2028,1232,-1093,169,-108
3664,814,731,885,723,170,17052,-2000,1260,-1094,181,-107
3667,816,734,880,733,169,17036,-1960,1300,-1116,147,-108
3670,814,733,885,730,171,17040,-1964,1452,-1162,145,-107
3673,809,734,885,731,167,17156,-2020,1348,-1205,111,-96
3676,805,733,880,734,165,17124,-2000,1224,-1205,151,-79
3679,806,730,885,734,168,17120,-2040,1308,-1217,116,-79
3682,815,731,886,734,170,17096,-2012,1332,-1240,97,-74
3685,812,729,884,734,170,16996,-2076,1140,-1226,86,-76
3688,805,727,884,727,167,17020,-1972,1200,-1252,52,-98
3691,813,735,883,735,174,17000,-2084,1276,-1232,-2,-111
3694,815,731,890,727,173,17080,-2088,1344,-1254,23,-82
3697,810,736,891,730,171,17052,-2108,1204,-1250,-1,-80
3700,812,730,887,724,169,17024,-2132,1292,-1235,-41,-93
3703,813,726,887,720,173,17036,-2088,1380,-1234,-36,-103
3706,810,734,886,727,171,17056,-2072,1236,-1229,-5,-66
3709,807,723,885,721,171,17016,-2128,1264,-1215,3,-36
3712,809,721,887,720,166,16984,-2072,1392,-1215,42,-61
3715,806,725,887,719,175,17036,-2104,1280,-1156,31,-35
3718,805,718,887,720,169,16932,-2048,1400,-1141,37,-30
3721,810,720,885,720,173,17036,-2004,1500,-1136,32,-48
3724,810,720,893,719,173,17128,-2076,1552,-1151,41,-22
3727,803,721,884,718,171,17200,-1996,1492,-1139,17,-32
3730,803,723,887,718,171,17108,-1928,1536,-1133,28,-16
3733,809,722,887,720,166,17168,-2024,1620,-1117,-1,-17
3736,804,722,887,720,165,17096,-1924,1496,-1118,20,-19
3739,801,729,885,720,169,17164,-2064,1460,-1112,21,-7
3742,804,723,890,720,174,17180,-1988,1624,-1086,40,0
3745,806,720,888,716,173,17208,-1952,1604,-1088,14,22
3748,807,721,887,725,170,17132,-2016,1512,-1079,36,2
3751,810,720,885,720,172,17024,-1936,1640,-1076,3,-8
3754,807,720,886,725,173,17072,-2008,1404,-1089,6,-5
3757,809,720,891,726,171,17156,-1924,1448,-1063,34,-9
3760,806,721,890,730,168,17148,-2048,1624,-1103,50,-7
3763,807,723,891,726,175,17184,-1964,1352,-1079,42,-47
3766,811,727,893,730,170,17120,-1916,1260,-1154,59,-9
3769,807,725,884,731,174,17096,-2072,1248,-1158,69,-25
3772,809,722,887,727,166,17124,-2056,1332,-1194,75,-5
3775,812,721,889,727,172,17080,-2016,1256,-1232,83,-29
3778,809,720,889,729,170,17084,-1996,1224,-1249,84,-33
3781,807,720,881,731,173,17104,-2088,1376,-1269,87,-45
3784,813,718,891,726,172,17116,-2100,1348,-1282,62,-44
3787,807,721,892,726,166,17028,-2148,1356,-1325,45,-61
3790,807,721,887,731,167,17048,-2028,1264,-1299,41,-57
3793,820,726,891,731,165,17044,-2044,1408,-1326,14,-48
3796,813,717,883,729,165,17076,-2032,1332,-1287,37,-71
3799,803,726,894,731,166,17128,-2008,1708,-1318,35,-44
3802,809,729,893,731,168,17128,-2088,1480,-1282,10,-45
3805,805,726,886,730,161,17128,-2052,1592,-1288,25,-59
3808,814,731,890,731,167,17108,-1988,1540,-1236,56,-57
3811,807,738,885,732,167,16980,-2028,1556,-1241,77,-72
3814,811,735,887,733,167,17156,-1964,1548,-1221,67,-92
3817,807,730,886,740,165,17104,-2076,1484,-1224,33,-69
3820,806,730,886,737,166,17068,-2116,1784,-1184,74,-42
3823,814,723,887,735,163,17092,-1936,1584,-1167,50,-46
3826,807,720,890,735,170,17008,-2060,1420,-1137,55,-54
3829,808,720,894,737,165,17032,-2076,1520,-1115,51,-67
3832,813,720,889,733,168,17048,-2088,1496,-1078,27,-31
3835,813,720,887,741,167,16956,-2056,1452,-1063,16,-46
3838,812,721,891,729,167,17060,-2080,1592,-1054,20,-27
3841,813,719,891,726,171,17004,-2040,1476,-1078,-3,-28
3844,817,717,891,727,164,17060,-2104,1480,-1061,-23,-17
3847,812,711,891,723,165,17124,-1980,1608,-1050,-20,-37
3850,810,717,887,718,167,17172,-2040,1380,-1020,-12,-36
3853,811,717,893,724,167,17152,-2044,1532,-1003,-24,-28
3856,807,715,897,722,162,17108,-2024,1296,-999,23,-11
3859,806,720,892,722,171,17104,-2012,1704,-984,-11,-19
3862,807,720,891,720,171,17048,-1940,1560,-971,6,-34
3865,814,721,892,720,167,17148,-1968,1636,-1005,10,-39
3868,810,715,888,721,167,17076,-1984,1616,-1037,35,-21
3871,812,720,890,724,171,17132,-1920,1588,-1041,-15,-32
3874,813,717,893,724,170,17100,-1872,1472,-1034,89,22
3877,809,720,885,720,172,17204,-1968,1516,-1046,52,-41
3880,810,720,889,729,166,17032,-1924,1352,-1051,34,-10
3883,809,720,891,727,167,17040,-2020,1448,-1037,0,-42
3886,809,725,890,729,172,17148,-1952,1416,-1010,-17,-43
3889,809,730,890,729,170,17148,-1976,1424,-1050,-6,-23
3892,802,720,886,727,174,17156,-2048,1368,-1041,-30,-76
3895,809,721,890,730,171,17112,-2116,1420,-1031,-51,-85
3898,810,726,882,733,176,17148,-2028,1520,-1036,-61,-70
3901,811,725,881,729,171,17128,-2068,1584,-989,-81,-82
3904,810,720,883,734,171,17152,-2032,1612,-1012,-47,-68
3907,803,727,885,730,171,17024,-2080,1560,-971,-54,-82
3910,811,720,883,727,170,17108,-1964,1528,-974,-41,-110
3913,809,723,885,727,170,17204,-1964,1544,-977,-34,-87
3916,807,723,890,732,169,17128,-1892,1400,-965,-15,-104
3919,811,730,887,737,164,17208,-2024,1372,-931,12,-104
3922,810,729,890,734,163,17228,-1940,1416,-957,41,-108
3925,809,733,890,734,165,17112,-1984,1620,-964,27,-90
3928,810,728,885,734,167,17224,-2056,1564,-951,29,-123
3931,802,730,887,731,165,17076,-2016,1364,-999,48,-89
3934,806,743,886,738,169,17104,-2112,1372,-982,36,-124
3937,813,720,882,736,163,17084,-2028,1392,-987,29,-93
3940,811,719,881,736,165,17076,-1988,1572,-995,35,-104
3943,814,723,887,735,165,17044,-2000,1420,-1007,8,-98
3946,814,727,889,736,170,17104,-1928,1420,-967,-6,-107
3949,816,723,887,738,167,17132,-1964,1548,-1003,40,-127
3952,815,720,891,738,176,17152,-1964,1436,-953,27,-100
3955,816,720,886,737,170,17020,-1856,1412,-946,23,-113
3958,815,718,887,738,170,17116,-1916,1500,-944,33,-114
3961,816,719,889,733,169,17176,-2036,1412,-929,40,-115
3964,816,720,883,736,171,17080,-1960,1556,-911,44,-136
3967,817,717,886,733,171,17108,-2012,1676,-915,16,-131
3970,816,720,884,739,170,17068,-1940,1460,-919,20,-135
3973,816,726,885,737,175,16992,-2048,1712,-894,30,-151
3976,810,717,883,736,166,17080,-1960,1560,-901,-3,-127
3979,816,720,881,740,169,17188,-2000,1556,-891,-3,-137
3982,811,719,887,733,164,17160,-2068,1620,-877,15,-149
3985,815,720,887,741,172,17204,-1920,1624,-873,10,-120
3988,811,721,887,739,174,17064,-1932,1564,-844,10,-122
3991,812,718,889,738,167,17124,-1932,1536,-813,10,-141
3994,807,719,886,739,172,17032,-2048,1484,-821,-29,-140
3997,802,719,885,739,167,17104,-1980,1496,-847,-14,-101
4000,806,717,886,738,173,17080,-1960,1440,-841,-41,-114
4003,804,721,886,739,165,17196,-1868,1564,-817,-36,-122
4006,809,721,883,739,166,17080,-2000,1576,-817,-33,-123
4009,803,723,882,738,167,17088,-1920,1500,-765,-3,-115
4012,804,725,883,739,169,17060,-1856,1348,-756,3,-130
4015,799,731,887,737,170,17044,-1904,1480,-715,22,-105
4018,805,718,887,743,170,17124,-1796,1436,-734,-13,-110
4021,803,723,881,741,165,17140,-1868,1380,-763,30,-87
4024,811,720,893,741,166,17156,-1972,1448,-769,-2,-104
4027,805,720,885,747,168,17072,-1836,1428,-787,5,-71
4030,811,721,889,732,166,17168,-1852,1544,-789,8,-69
4033,805,722,887,733,166,17056,-1876,1524,-820,-19,-87
4036,807,723,887,733,167,17132,-1860,1408,-828,-5,-88
4039,810,722,883,734,170,17164,-1964,1428,-862,-28,-107
4042,814,724,885,728,170,17152,-1888,1400,-889,14,-56
4045,813,720,881,727,170,17096,-1836,1384,-907,-16,-118
4048,806,720,881,730,173,17056,-1956,1524,-912,11,-84
4051,813,721,881,729,164,17024,-1844,1576,-905,-18,-87
4054,810,720,890,730,169,17152,-1912,1480,-917,-44,-110
4057,813,720,885,725,169,17104,-1980,1528,-920,-28,-112
4060,816,717,887,730,165,17104,-1904,1520,-916,-14,-107
4063,809,718,883,730,168,17112,-1900,1556,-927,-9,-98
4066,811,707,885,723,167,17200,-1848,1640,-941,2,-103
4069,805,714,885,726,164,17068,-1916,1620,-963,33,-87
4072,805,719,882,728,167,17108,-1900,1484,-995,25,-103
4075,807,724,881,731,169,17124,-1836,1428,-972,36,-110
4078,813,721,883,729,164,17184,-1780,1612,-1003,16,-88
4081,807,720,887,747,163,17124,-1796,1536,-1002,21,-107
4084,809,720,883,734,163,17128,-1848,1576,-1065,-14,-103
4087,815,723,886,731,167,17108,-1948,1616,-1040,-20,-108
4090,813,724,885,738,169,17076,-1944,1556,-1096,-24,-112
4093,811,734,885,737,165,17200,-1848,1624,-1088,-22,-125
4096,814,723,883,740,169,17160,-1948,1236,-1109,-13,-132
4099,814,720,887,736,166,17168,-1764,1596,-1130,-15,-106
4102,816,722,884,735,164,17168,-1860,1568,-1138,-14,-135
4105,814,743,887,735,166,17256,-1820,1528,-1121,11,-110
4108,816,718,887,732,167,17260,-1972,1468,-1116,-2,-140
4111,817,723,882,737,164,17168,-1932,1412,-1105,-3,-147
4114,816,732,889,724,163,17224,-1852,1456,-1080,40,-137
4117,815,733,888,726,162,17268,-1920,1384,-1159,8,-155
4120,817,735,889,731,161,17068,-1988,1504,-1144,24,-153
4123,812,728,885,730,162,17140,-1964,1332,-1161,5,-165
4126,814,734,885,734,164,16932,-1900,1612,-1192,14,-139
4129,813,731,883,736,167,17024,-1932,1668,-1178,31,-139
4132,807,727,883,733,164,17104,-1884,1528,-1142,56,-140
4135,805,732,885,731,165,17208,-1908,1460,-1128,81,-152
4138,807,738,885,733,173,17200,-1892,1532,-1112,61,-141
4141,810,734,882,736,171,17148,-1936,1612,-1092,96,-121
4144,806,738,884,732,174,17028,-1960,1600,-1051,114,-94
4147,813,734,880,729,171,17068,-2012,1396,-1051,119,-127
4150,805,735,887,729,170,17052,-1952,1428,-1028,128,-109
4153,810,736,886,723,172,17060,-2012,1488,-1056,143,-88
4156,811,729,879,727,171,17036,-2056,1616,-1053,90,-91
4159,810,731,883,724,173,17000,-2108,1440,-1035,84,-94
4162,813,723,886,724,167,17064,-2100,1368,-1018,122,-91
4165,802,720,885,732,173,17076,-1944,1492,-1015,111,-100
4168,812,718,880,734,169,17076,-2040,1540,-1031,61,-86
4171,816,720,879,721,171,17096,-2004,1332,-1052,69,-112
4174,815,723,875,733,163,17068,-2044,1284,-1045,45,-99
4177,810,720,882,731,166,16984,-1980,1312,-1049,12,-138
4180,807,722,885,729,168,17080,-1980,1428,-1031,29,-111
4183,813,722,883,734,175,17128,-2004,1344,-1063,-1,-107
4186,812,725,883,733,175,17156,-2060,1272,-1052,-25,-91
4189,813,722,881,728,168,17208,-2072,1312,-1074,-56,-89
4192,815,727,887,730,167,17112,-1992,1388,-1056,-37,-99
4195,814,722,884,724,166,17084,-2072,1324,-1081,-63,-68
4198,810,720,880,730,167,17112,-1956,1480,-1083,-78,-75
4201,814,723,886,725,167,17244,-2012,1380,-1073,-45,-69
4204,813,727,880,726,166,17092,-1964,1484,-1075,-35,-71
4207,807,723,883,733,165,17028,-1956,1380,-1024,-31,-55
4210,813,726,883,727,166,17088,-2012,1496,-1034,-2,-61
4213,813,729,882,737,168,16996,-1976,1308,-970,2,-64
4216,812,723,883,729,163,17048,-2000,1388,-958,-2,-25
4219,811,725,883,723,163,17104,-2016,1264,-933,0,-57
4222,811,722,883,724,161,17064,-2096,1324,-940,12,-56
4225,815,720,887,720,164,17096,-2020,1376,-911,-23,-16
4228,810,721,880,720,170,17140,-2076,1372,-914,-10,-11
4231,813,723,883,719,163,17044,-2108,1364,-913,14,-32
4234,816,731,882,719,165,17180,-2040,1556,-882,8,21
4237,816,721,880,709,167,17068,-2172,1284,-871,27,21
4240,815,721,882,711,163,17104,-2184,1396,-889,20,29
4243,813,720,889,699,172,17172,-2084,1300,-855,-31,37
4246,816,720,881,706,171,17076,-2160,1388,-847,-15,31
4249,816,718,883,704,169,17060,-2132,1488,-820,-36,21
4252,817,717,875,703,171,17108,-2028,1324,-789,-32,51
4255,811,720,882,700,167,17040,-2088,1368,-803,-31,24
4258,812,718,883,707,169,17068,-2044,1436,-760,-53,50
4261,811,720,886,695,170,17060,-2044,1424,-782,-65,77
4264,812,718,880,701,176,17184,-1944,1316,-837,-70,68
4267,807,720,885,704,174,17100,-2056,1712,-831,-88,57
4270,805,720,886,701,170,17072,-2084,1516,-882,-92,104
4273,810,717,885,702,175,17080,-2056,1488,-902,-112,113
4276,804,719,885,698,171,17124,-2060,1508,-907,-91,147
4279,812,721,883,699,172,17132,-2044,1488,-883,-57,149
4282,805,721,882,702,170,17172,-2068,1248,-864,-46,174
4285,800,724,885,701,176,17088,-2100,1328,-825,-1,189
4288,806,720,896,710,173,17128,-2068,1452,-805,23,201
4291,807,723,886,707,170,17052,-2148,1416,-831,-10,196
4294,805,726,883,710,173,17000,-2140,1352,-814,-31,204
4297,805,721,885,719,176,17072,-2056,1364,-805,-41,198
4300,806,720,884,721,173,17112,-2168,1404,-778,-21,198
4303,814,713,887,715,176,17112,-2104,1348,-719,-59,201
4306,810,711,894,706,176,17060,-2120,1240,-672,-81,177
4309,807,713,883,713,171,17104,-2060,1248,-677,-89,180
4312,805,714,890,715,175,16984,-1948,1280,-604,-96,182
4315,810,707,891,715,176,17128,-2040,1528,-568,-120,179
4318,803,713,887,720,176,17144,-2008,1480,-577,-78,144
4321,803,718,892,718,174,17188,-1988,1472,-583,-118,124
4324,803,716,891,719,173,17060,-2008,1524,-552,-104,137
4327,801,710,894,720,176,17204,-1868,1352,-519,-102,82
4330,803,717,887,722,171,17212,-1892,1592,-505,-91,59
4333,802,719,889,723,174,17132,-1840,1404,-459,-57,33
4336,802,715,887,720,173,17100,-1888,1364,-451,-69,20
4339,804,720,891,721,176,17112,-1900,1544,-503,-59,-1
4342,806,715,889,723,172,17176,-1840,1468,-532,-86,17
4345,813,720,892,726,173,17172,-1872,1500,-584,-101,9
4348,810,723,887,727,170,17156,-1840,1616,-621,-82,-14
4351,809,721,893,732,169,17064,-1780,1688,-631,-53,-19
4354,809,723,885,735,173,17080,-1808,1504,-681,-96,-35
4357,807,725,887,736,171,17012,-1804,1592,-671,-79,-56
4360,807,729,889,739,170,17036,-1780,1552,-654,-90,-55
4363,812,723,885,747,172,17176,-1820,1348,-607,-56,-40
4366,814,729,881,740,171,17160,-1744,1640,-602,-60,-35
4369,809,727,883,737,169,17124,-1880,1460,-588,-54,-50
4372,807,727,890,737,171,17196,-1740,1452,-592,-47,-63
4375,810,729,882,734,171,17092,-1820,1480,-590,-43,-35
4378,815,731,889,730,170,17152,-1792,1484,-562,-86,-47
4381,816,735,889,727,166,17200,-1804,1552,-550,-89,-78
4384,813,734,889,729,167,17152,-1712,1360,-538,-81,-94
4387,815,734,885,724,165,17200,-1712,1472,-562,-28,-106
4390,809,729,881,727,165,17188,-1652,1456,-594,-47,-116
4393,813,729,886,726,166,17152,-1796,1440,-575,-45,-103
4396,813,731,883,729,170,17156,-1752,1548,-596,-26,-115
4399,807,734,883,734,170,17216,-1748,1464,-625,-35,-132
4402,805,731,882,727,169,17148,-1784,1668,-658,-28,-119
4405,811,738,891,734,166,17200,-1728,1548,-639,-32,-103
4408,804,733,883,731,169,17180,-1648,1608,-652,-16,-130
4411,807,730,880,739,169,17224,-1664,1588,-679,-14,-150
4414,806,734,881,735,167,17208,-1552,1680,-655,21,-136
4417,803,727,880,735,164,17176,-1692,1444,-667,3,-152
4420,806,723,885,735,163,17240,-1704,1648,-663,36,-143
4423,805,723,883,739,174,17220,-1680,1556,-674,59,-151
4426,806,722,881,739,165,17248,-1652,1488,-678,57,-173
4429,807,727,889,737,169,17148,-1736,1420,-705,64,-170
4432,806,726,880,738,175,17176,-1728,1504,-716,62,-136
4435,809,733,881,741,172,17224,-1652,1368,-770,66,-141
4438,807,732,883,735,170,17284,-1688,1436,-812,76,-145
4441,811,732,882,738,170,17088,-1784,1504,-854,72,-168
4444,813,747,886,737,171,17220,-1692,1264,-863,71,-141
4447,810,729,883,734,172,17076,-1764,1520,-934,49,-165
4450,811,727,885,741,173,17180,-1768,1400,-904,87,-161
4453,815,729,880,739,171,17260,-1728,1392,-929,73,-171
4456,794,737,883,742,176,17112,-1764,1400,-950,79,-161
4459,810,731,880,739,170,17124,-1800,1480,-963,81,-166
4462,807,727,887,740,173,17048,-1648,1624,-995,90,-140
4465,812,738,896,747,173,17116,-1784,1596,-995,115,-148
4468,806,734,887,740,174,17200,-1756,1476,-1048,91,-128
4471,813,731,880,739,175,17092,-1736,1524,-1090,81,-159
4474,813,729,892,741,173,17108,-1892,1468,-1075,122,-147
4477,815,733,881,743,176,17076,-1708,1648,-1120,83,-120
4480,809,731,889,743,171,17048,-1720,1520,-1137,112,-144
4483,803,731,887,743,171,16976,-1844,1608,-1138,85,-131
4486,807,729,887,750,172,17004,-1836,1568,-1197,111,-116
4489,810,720,881,745,172,16984,-1832,1736,-1218,96,-92
4492,813,725,883,747,170,17036,-1896,1692,-1234,99,-71
4495,811,725,886,745,174,17120,-1812,1428,-1231,117,-71
4498,812,733,887,743,174,17124,-1764,1540,-1218,115,-45
4501,811,730,882,747,169,17124,-1840,1532,-1190,126,-40
4504,816,726,891,741,171,17020,-1872,1516,-1178,96,-65
4507,800,725,889,736,175,17044,-1884,1536,-1179,117,-41
4510,806,732,886,741,172,17016,-1868,1596,-1164,122,-40
4513,801,723,891,741,167,17040,-1896,1512,-1142,78,-35
4516,805,729,893,739,170,17168,-1840,1608,-1138,82,-27
4519,807,730,883,742,171,17040,-1828,1620,-1104,82,-41
4522,804,729,890,741,170,17080,-1908,1400,-1118,65,-8
4525,810,729,882,732,173,17044,-1888,1524,-1120,71,-1
4528,809,726,887,727,170,17032,-1784,1592,-1122,49,8
4531,808,735,887,731,166,17020,-1960,1608,-1125,26,18
4534,807,725,889,730,173,17120,-2016,1512,-1125,30,6
4537,802,726,886,721,170,17064,-1892,1596,-1166,29,22
4540,803,731,887,730,167,17080,-1908,1480,-1176,43,32
4543,801,731,884,737,174,17048,-1820,1584,-1168,36,23
4546,806,722,885,734,170,17040,-1960,1444,-1203,41,41
4549,794,730,891,736,168,17052,-1816,1468,-1219,13,39
4552,814,730,886,736,171,17056,-1844,1440,-1235,33,36
4555,809,729,893,736,176,17148,-1900,1540,-1215,2,12
4558,810,723,885,734,172,17104,-1968,1572,-1191,18,46
4561,807,722,888,738,175,17072,-1868,1584,-1224,5,12
4564,810,727,891,745,176,17096,-1988,1584,-1208,-10,51
4567,801,722,891,734,176,17112,-2004,1504,-1195,-38,27
4570,806,720,889,734,176,17036,-1928,1424,-1190,1,11
4573,806,724,890,735,176,17180,-1900,1452,-1231,-3,27
4576,806,721,885,735,175,17164,-1940,1428,-1286,0,40
4579,810,722,884,735,176,17232,-1928,1648,-1306,-19,19
4582,810,731,893,734,174,17156,-1992,1568,-1334,-1,48
4585,806,728,886,737,177,17092,-1916,1584,-1343,-20,20
4588,809,727,890,736,176,17092,-1988,1500,-1392,-4,12
4591,814,726,895,738,175,16996,-1988,1388,-1403,-30,23
4594,810,725,894,737,178,17028,-1908,1744,-1401,2,3
4597,811,728,893,739,176,17072,-1968,1564,-1358,-16,14
4600,805,725,898,743,178,17112,-2024,1528,-1330,13,10
4603,805,724,893,738,176,17148,-1876,1548,-1302,18,2
4606,811,724,890,740,177,17088,-1912,1540,-1226,44,16
4609,805,726,890,741,176,17132,-1848,1652,-1206,14,-5
4612,827,732,890,734,179,17192,-1964,1556,-1207,26,9
4615,805,737,891,738,176,17156,-1972,1516,-1230,41,23
4618,809,734,892,735,181,17092,-1956,1588,-1235,30,25
4621,814,739,885,737,178,17160,-1980,1532,-1267,15,13
4624,816,741,895,739,176,17112,-1956,1548,-1250,14,34
4627,816,735,886,738,176,17152,-1992,1480,-1229,15,33
4630,818,730,885,741,179,17140,-1864,1488,-1267,18,1
4633,817,731,885,751,179,17144,-1948,1536,-1259,16,45
4636,816,734,887,749,178,17156,-1948,1528,-1256,31,38
4639,821,731,883,749,183,17112,-1956,1536,-1245,11,47
4642,819,725,891,750,178,17120,-1996,1348,-1242,41,38
4645,828,729,883,752,176,17028,-1888,1520,-1275,15,23
4648,821,729,893,748,178,17060,-2060,1352,-1285,0,9
4651,832,725,889,752,179,17072,-2052,1488,-1303,-26,25
4654,829,730,892,747,177,17156,-1956,1736,-1314,-74,13
4657,826,727,894,745,177,17076,-2064,1544,-1325,-62,6
4660,825,732,892,743,176,17168,-2076,1488,-1307,-38,9
4663,823,727,893,740,176,17260,-2020,1444,-1300,-68,4
4666,823,727,891,739,177,17192,-2068,1460,-1290,-21,13
4669,817,721,891,739,178,17264,-2020,1428,-1321,-48,14
4672,816,726,889,748,178,17180,-2032,1592,-1298,-17,6
4675,823,727,896,737,176,17180,-2044,1604,-1306,-3,21
4678,816,727,887,736,176,17148,-2120,1612,-1295,13,-7
4681,813,735,887,738,174,17172,-2064,1468,-1283,27,-8
4684,810,739,887,739,176,17116,-1916,1604,-1274,14,-29
4687,813,739,891,738,176,17132,-2064,1548,-1240,33,2
4690,805,745,894,738,176,17152,-2016,1656,-1195,36,-28
4693,807,745,890,735,175,17104,-1932,1780,-1151,80,-18
4696,806,742,891,738,175,17192,-2044,1748,-1110,96,-15
4699,805,736,890,743,176,17116,-1960,1672,-1089,115,-27
4702,809,724,886,739,174,17084,-2040,1584,-1083,97,-18
4705,811,725,885,739,174,17092,-2048,1512,-1059,128,-13
4708,806,720,883,738,175,17024,-1984,1456,-1069,88,-42
4711,810,720,887,738,176,17204,-2024,1460,-1076,68,-31
4714,809,720,891,739,176,16980,-1996,1672,-1062,66,-67
4717,802,709,886,736,176,17040,-1948,1564,-1061,64,-64
4720,811,714,885,743,173,17108,-1900,1720,-1069,25,-55
4723,815,704,882,738,171,16992,-1896,1560,-1067,32,-85
4726,813,706,887,739,173,17092,-1976,1492,-1098,-26,-75
4729,823,711,883,738,176,17128,-2028,1528,-1095,-24,-78
4732,805,711,883,740,174,17216,-1848,1668,-1106,-15,-72
4735,811,711,889,744,171,17108,-1908,1564,-1115,-37,-40
4738,807,709,880,739,175,17060,-1996,1584,-1108,-44,-62
4741,807,709,878,738,169,17152,-1936,1544,-1054,-28,-71
4744,807,710,890,735,169,17044,-1956,1608,-1093,-17,-42
4747,804,715,891,734,167,17092,-1896,1664,-1074,-36,-59
4750,812,718,889,733,174,17156,-1924,1476,-1091,-71,-94
4753,810,711,891,735,170,17036,-1860,1596,-1090,-60,-80
4756,810,716,887,738,167,17028,-1832,1648,-1139,-123,-61
4759,810,719,895,736,172,17008,-1796,1636,-1147,-131,-78
4762,810,719,884,737,174,17032,-1916,1584,-1195,-100,-86
4765,812,722,893,739,173,17192,-1876,1556,-1198,-113,-80
4768,807,721,887,742,172,17168,-1884,1620,-1211,-48,-63
4771,807,720,889,741,171,17144,-1760,1528,-1178,-29,-41
4774,805,720,890,745,171,17120,-1864,1588,-1191,-6,-55
4777,803,720,886,747,167,17196,-1824,1604,-1184,9,-28
4780,801,719,883,749,169,17168,-1860,1556,-1177,38,-55
4783,802,720,890,743,165,17040,-1796,1520,-1196,57,-27
4786,795,726,890,739,174,17148,-1956,1608,-1201,34,-42
4789,805,721,890,742,164,17056,-1896,1500,-1228,25,-23
4792,802,727,891,736,170,17024,-1904,1544,-1239,5,-61
4795,802,726,894,736,166,17016,-1812,1496,-1283,-1,-42
4798,809,730,892,743,163,17000,-1964,1624,-1301,-15,-40
4801,807,727,893,744,169,17144,-1872,1500,-1315,-16,-37
4804,813,730,884,747,168,16964,-1900,1560,-1339,36,-55
4807,816,730,892,742,161,17024,-1908,1572,-1372,-27,-10
4810,814,726,890,743,173,17036,-1824,1460,-1363,29,-48
4813,811,722,886,747,166,17020,-1948,1456,-1378,-9,-30
4816,810,729,889,746,163,17076,-1944,1448,-1405,15,-11
4819,811,724,884,745,164,17104,-1868,1576,-1365,31,-40
4822,811,723,887,748,168,17124,-1964,1596,-1390,27,-25
4825,813,730,883,749,167,17004,-1944,1500,-1373,42,-36
4828,811,726,890,750,166,17088,-2060,1564,-1387,36,-24
4831,811,726,884,750,169,17076,-2020,1408,-1361,25,-41
4834,818,730,891,752,166,17016,-1980,1432,-1323,57,-38
4837,808,722,886,752,171,17000,-2024,1560,-1320,42,-25
4840,812,717,890,752,165,17004,-2068,1592,-1343,20,-53
4843,807,723,883,752,167,17144,-2116,1456,-1301,-16,-43
4846,809,727,886,750,169,17020,-2020,1600,-1284,-23,-64
4849,812,727,890,748,163,17140,-2060,1572,-1265,-11,-53
4852,810,730,887,747,173,17144,-2060,1516,-1287,-30,-59
4855,805,729,886,748,175,17040,-2096,1640,-1258,-29,-53
4858,807,730,889,746,172,17112,-2100,1660,-1239,-32,-54
4861,800,721,894,747,167,16972,-2160,1568,-1199,-15,-62
4864,799,720,891,747,165,16980,-2152,1628,-1181,8,-63
4867,807,720,883,747,167,17044,-2084,1724,-1162,19,-70
4870,803,722,891,745,169,17008,-2132,1536,-1134,7,-76
4873,802,716,891,743,167,16936,-2068,1540,-1134,34,-61
4876,805,711,885,741,167,17088,-2076,1436,-1089,15,-59
4879,806,717,886,742,165,17008,-2096,1500,-1107,12,-81
4882,799,717,887,741,163,16984,-2068,1524,-1082,8,-70
4885,806,720,887,737,170,17024,-2128,1220,-1097,27,-65
4888,803,723,887,735,162,16968,-2160,1324,-1065,-12,-109
4891,803,719,883,742,166,17020,-2140,1396,-1073,-26,-81
4894,810,720,884,741,170,16964,-2156,1488,-1060,-33,-112
4897,807,720,884,735,165,17060,-2060,1668,-1063,-16,-83
4900,810,722,883,738,166,16996,-2248,1444,-1052,-57,-51
4903,816,723,887,743,166,17020,-2156,1488,-1027,-53,-76
4906,816,720,887,737,167,17036,-2160,1412,-1042,-53,-84
4909,816,723,891,723,170,16964,-2156,1492,-994,-49,-56
4912,815,720,883,753,165,17028,-2176,1584,-1003,-102,-33
4915,816,717,887,739,170,17000,-2116,1484,-1014,-108,-58
4918,803,721,881,738,162,17068,-2052,1616,-960,-121,-26
4921,815,721,882,743,169,17104,-2192,1384,-969,-127,-77
4924,810,721,891,740,166,17136,-2200,1400,-897,-165,-36
4927,816,722,887,738,164,17008,-2032,1524,-884,-172,-35
4930,815,723,879,738,163,16956,-2160,1420,-840,-141,-65
4933,814,725,888,740,165,17156,-2112,1444,-843,-139,-57
4936,814,720,881,762,162,17076,-2060,1552,-832,-104,-56
4939,812,722,889,734,166,17036,-2084,1400,-824,-119,-55
4942,813,727,887,737,165,17072,-2032,1548,-822,-98,-63
4945,807,727,890,737,165,17104,-2164,1584,-781,-81,-60
4948,811,729,891,739,166,17008,-2180,1500,-755,-78,-41
4951,807,723,885,734,167,17128,-2000,1504,-734,-34,-32
4954,803,732,887,739,164,17060,-2052,1348,-725,-37,-35
4957,810,727,883,742,163,17140,-2048,1440,-721,-22,-38
4960,809,729,894,740,164,17036,-2024,1392,-726,-53,-46
4963,808,727,886,741,166,17036,-2072,1624,-721,-27,-52
4966,807,727,889,749,162,17164,-1924,1416,-735,-40,-67
4969,812,731,888,747,166,17132,-1992,1304,-708,-14,-27
4972,814,726,883,750,162,17100,-1980,1412,-719,-101,-40
4975,811,731,885,751,163,17068,-1864,1292,-750,-128,-38
4978,809,727,887,748,167,17048,-1956,1348,-774,-177,-77
4981,809,719,886,746,162,17048,-1960,1472,-792,-140,-101
4984,813,732,887,739,166,17180,-1940,1308,-822,-129,-89
4987,808,727,885,742,161,17076,-1972,1480,-897,-150,-91
4990,810,727,890,743,160,17096,-1944,1388,-924,-142,-71
4993,813,730,885,743,164,17220,-1856,1476,-927,-78,-103
4996,806,724,893,739,162,17188,-1884,1584,-935,-53,-84
4999,807,725,889,737,159,17088,-1832,1456,-965,-25,-79
5002,804,729,891,737,162,17012,-1904,1352,-933,-47,-66
5005,807,734,891,740,161,17044,-1964,1372,-986,-15,-51
5008,811,730,886,731,162,17056,-2004,1468,-999,-11,-45
5011,804,730,885,735,165,17012,-2004,1452,-981,-14,-44
5014,811,721,883,735,166,17112,-2004,1352,-995,-80,-10
5017,800,733,887,735,165,17116,-2048,1252,-1028,-112,-8
5020,802,730,885,732,161,16980,-1984,1304,-986,-119,-12
5023,805,730,886,729,161,17072,-1972,1256,-1006,-107,10
5026,807,736,890,723,164,17080,-2040,1584,-1000,-78,16
5029,802,730,887,733,162,17100,-2048,1520,-970,-106,4
5032,810,735,885,727,160,17060,-2084,1364,-974,-128,-5
5035,816,749,890,726,160,17088,-2096,1360,-970,-81,-3
5038,812,742,889,730,167,17080,-2120,1392,-947,-81,3
5041,806,741,885,730,165,17172,-2120,1484,-981,-65,-3
5044,811,737,889,731,162,17268,-2032,1536,-950,-73,-5
5047,807,741,883,736,161,17200,-2068,1300,-966,-63,13
5050,807,737,883,738,167,17092,-1988,1480,-976,-91,27
5053,805,731,888,739,166,17196,-1960,1328,-984,-87,1
5056,799,731,889,735,171,17068,-2036,1460,-968,-71,33
5059,812,734,885,756,170,17044,-1964,1456,-989,-97,36
5062,811,733,883,731,169,17044,-2008,1540,-972,-70,4
5065,805,729,891,733,175,17008,-1892,1460,-947,-99,-13
5068,807,733,891,733,166,17176,-1948,1448,-932,-75,-7
5071,811,741,891,737,166,17096,-1968,1300,-894,-85,-9
5074,806,735,895,734,171,17132,-1884,1188,-905,-68,-23
5077,805,736,891,732,165,17088,-2052,1240,-868,-58,-45
5080,809,734,881,731,167,17072,-1948,1264,-895,-71,-53
5083,813,734,881,730,165,17132,-2024,1228,-930,-37,-72
5086,815,742,880,747,164,17040,-2036,1388,-941,-47,-52
5089,810,735,886,731,165,17028,-1996,1276,-990,-52,-89
5092,816,734,882,727,165,17112,-1964,1404,-1010,-43,-76
5095,815,736,882,737,166,17080,-1976,1396,-1035,-47,-66
5098,817,736,881,740,166,17128,-1908,1464,-1031,-53,-85
5101,811,737,889,742,168,17140,-1960,1440,-1036,-41,-85
5104,829,736,883,737,168,17124,-2052,1452,-1025,-27,-106
5107,810,735,885,747,165,17040,-2060,1432,-1002,-29,-100
5110,813,738,886,741,161,17184,-2028,1500,-997,-2,-53
5113,812,734,889,736,162,17072,-2024,1288,-1033,-13,-45
5116,811,731,882,740,165,16980,-2016,1608,-1022,26,-54
5119,807,726,887,741,164,17056,-2108,1276,-1058,19,-44
5122,810,734,883,738,164,17132,-1972,1432,-1095,-5,-49
5125,806,732,886,742,162,17100,-1940,1364,-1068,-56,-45
5128,807,739,890,743,162,17080,-2112,1504,-1063,-46,-69
5131,805,741,884,737,165,17056,-1976,1468,-1064,-80,-29
5134,800,739,887,735,166,17196,-2036,1528,-1003,-85,-46
5137,803,740,882,737,165,17124,-2148,1460,-999,-31,-69
5140,809,738,890,735,166,17120,-2012,1408,-931,-54,-55
5143,795,734,886,734,166,17048,-2156,1292,-933,-76,-40
5146,810,726,891,729,165,17156,-2156,1488,-928,-61,-31
5149,807,720,885,730,165,17164,-2072,1472,-942,-100,-30
5152,813,717,885,729,161,17060,-2192,1384,-936,-95,-59
5155,807,718,886,735,163,17120,-2096,1336,-953,-138,-41
5158,805,717,879,734,162,17172,-2164,1448,-903,-91,-75
5161,813,721,882,735,162,16996,-2156,1528,-884,-77,-30
5164,809,720,894,733,160,17020,-2108,1448,-843,-79,-53
5167,805,723,889,734,165,17076,-2180,1384,-829,-48,-27
5170,812,721,885,735,162,17020,-2192,1344,-745,-57,-43
5173,813,720,883,737,162,17100,-2132,1376,-746,-21,-31
5176,814,720,885,736,165,17060,-2128,1380,-700,-35,-51
5179,813,719,897,738,161,17168,-1980,1372,-682,-39,-34
5182,813,720,889,733,161,17072,-2104,1332,-675,-58,-31
5185,816,720,887,743,161,17124,-2116,1388,-703,-58,-46
5188,813,718,891,738,160,17036,-2144,1340,-719,-93,-35
5191,809,718,887,737,163,17064,-2132,1484,-730,-84,-31
5194,809,719,887,738,159,17120,-2032,1488,-732,-61,-35
5197,806,720,889,739,162,17200,-1996,1524,-747,-45,-13
5200,803,721,891,743,160,17204,-2128,1460,-726,-21,-20
5203,805,722,889,752,161,17124,-2020,1380,-730,-15,-33
5206,805,727,889,746,160,17180,-1964,1440,-715,-31,-21
5209,798,727,886,735,162,17036,-2004,1376,-748,-39,-31
5212,799,722,885,740,157,17128,-2112,1324,-735,-47,-45
5215,800,721,892,739,161,17116,-2020,1424,-760,-102,-59
5218,806,730,892,734,159,17080,-1948,1500,-768,-88,-35
5221,803,726,893,738,161,17048,-1952,1436,-788,-65,-64
5224,801,735,890,737,158,17220,-2092,1516,-820,-67,-59
5227,799,735,887,741,161,17112,-2076,1416,-821,-36,-51
5230,800,735,891,738,155,17152,-2056,1400,-824,-56,-66
5233,799,738,885,726,161,17140,-2048,1468,-837,-36,-58
5236,801,736,884,736,158,17160,-2040,1480,-825,-33,-63
5239,799,747,885,735,155,17136,-2096,1296,-840,-41,-35
5242,804,739,889,737,159,17084,-2124,1444,-825,-43,-32
5245,807,739,887,737,154,16992,-2088,1552,-801,-47,-54
5248,807,738,899,740,158,17036,-2152,1360,-778,-18,-14
5251,812,739,891,741,161,17080,-2024,1476,-730,-3,-35
5254,811,723,886,739,155,17100,-1996,1316,-749,4,-43
5257,809,730,883,741,161,17088,-2172,1480,-710,12,-43
5260,807,726,890,733,159,16908,-2092,1464,-690,-24,-57
5263,807,727,891,737,159,17048,-1972,1372,-676,-51,-32
5266,805,729,890,733,158,17048,-2088,1488,-671,-70,-21
5269,807,731,889,735,156,17036,-2068,1352,-614,-120,-53
5272,810,726,889,725,159,17208,-2040,1520,-580,-106,-38
5275,807,730,893,726,160,17112,-2044,1372,-567,-131,-13
5278,809,727,896,734,159,17180,-2076,1344,-536,-140,-49
5281,811,721,892,730,160,17116,-2048,1444,-512,-149,-62
5284,810,723,894,731,163,17096,-2036,1432,-517,-125,-29
5287,812,720,887,731,161,17088,-2060,1360,-527,-129,-1
5290,816,725,896,725,159,17148,-2032,1448,-496,-140,-27
5293,806,727,891,730,163,17012,-2192,1320,-550,-110,-40
5296,803,727,887,729,159,17124,-2024,1440,-542,-151,-13
5299,808,732,891,724,162,17072,-2032,1336,-564,-147,-34
5302,803,730,889,719,158,17072,-2076,1360,-574,-122,-32
5305,816,731,891,719,163,17072,-2096,1280,-610,-139,-28
5308,803,735,883,727,162,17076,-1908,1420,-586,-126,-52
5311,800,737,887,724,165,17156,-1940,1328,-604,-131,-28
5314,789,730,887,722,160,17168,-1888,1444,-592,-102,-19
5317,804,730,893,735,166,17072,-1992,1400,-598,-93,-16
5320,805,731,887,730,166,17104,-1928,1468,-651,-70,27
5323,807,733,894,730,162,17072,-1792,1424,-674,-73,-23
5326,816,734,891,726,165,17136,-1856,1404,-704,-95,6
5329,805,731,887,727,163,17164,-1816,1428,-728,-69,-14
5332,799,730,896,729,162,17128,-1824,1548,-718,-88,-4
5335,802,736,886,733,164,17140,-1744,1416,-720,-60,4
5338,800,738,894,727,164,17036,-1772,1412,-725,-34,1
5341,803,739,882,729,164,17136,-1780,1500,-730,5,-33
5344,800,736,881,731,163,17136,-1888,1448,-735,-28,-29
5347,801,735,887,726,170,17092,-1836,1420,-780,-33,-27
5350,815,742,890,726,166,17136,-1840,1480,-769,-60,-44
5353,805,730,882,727,163,17164,-1840,1436,-798,-51,-55
5356,802,722,888,726,166,17104,-1956,1428,-852,-66,-43
5359,809,722,889,726,163,17088,-1912,1436,-841,-74,-52
5362,810,724,886,734,171,17028,-1892,1432,-856,-78,-52
5365,815,726,890,727,161,17136,-1888,1560,-859,-77,-39
5368,808,722,883,737,159,17148,-1944,1680,-850,-41,-53
5371,811,730,894,726,162,17092,-1952,1488,-823,-59,-56
5374,823,722,881,730,161,17140,-1852,1368,-788,1,-52
5377,807,731,891,735,163,17212,-1972,1552,-757,-9,-15
5380,816,730,890,723,162,17156,-1960,1420,-749,-16,-31
5383,823,731,886,732,162,17108,-1984,1500,-753,6,-31
5386,813,726,887,725,161,17172,-1936,1488,-777,-13,-56
5389,807,737,893,724,159,17148,-1892,1544,-778,-27,-49
5392,806,726,889,731,162,17140,-1984,1584,-807,-51,-43
5395,805,721,891,733,162,17056,-1864,1384,-794,-50,-41
5398,807,721,886,735,163,17148,-1812,1480,-831,-65,-53
5401,811,721,889,729,159,17088,-1828,1664,-816,-56,-27
5404,799,720,891,730,160,17124,-1840,1568,-829,-81,-80
5407,806,719,891,731,162,17084,-1808,1480,-814,-26,-33
5410,803,719,891,734,165,17220,-1824,1460,-831,-33,-51
5413,813,720,889,733,165,17116,-1792,1624,-863,-49,-48
5416,808,719,893,735,166,17060,-1776,1528,-884,-26,-39
5419,806,721,891,731,163,17064,-1772,1488,-881,-36,-59
5422,807,720,887,730,163,17136,-1840,1372,-908,-34,-33
5425,807,720,886,730,162,17292,-1836,1424,-935,-17,-43
5428,811,720,883,732,161,17144,-1768,1372,-980,4,-41
5431,815,727,880,737,165,17072,-1856,1468,-1000,-29,-74
5434,816,725,885,734,163,17104,-1772,1556,-1019,-19,-36
5437,816,722,883,730,167,17112,-1828,1552,-1056,-35,-54
5440,816,727,885,733,162,17176,-1812,1536,-1081,-16,-50
5704,811,753,899,735,801,17208,-2072,1572,-754,-31,-54
5707,819,752,892,739,774,17152,-2056,1508,-793,-33,-23
5710,801,734,885,720,721,17108,-2108,1704,-806,-66,-17
5713,806,729,884,720,699,17140,-2080,1436,-841,-54,-35
5716,806,730,883,722,671,17084,-2032,1404,-882,-49,-14
5719,805,726,882,714,650,17124,-1968,1464,-859,-73,0
5722,805,725,883,739,624,17036,-1996,1448,-871,-61,0
5725,804,725,880,721,608,17056,-1936,1420,-880,-52,29
5728,800,721,881,718,589,17132,-1972,1388,-837,-55,-3
5731,803,721,881,720,563,17124,-1864,1384,-835,-46,-3
5734,806,725,882,713,545,17192,-1964,1404,-799,-65,20
5737,805,724,879,718,527,17124,-1912,1416,-847,-29,0
5740,802,725,880,709,511,17132,-1980,1424,-803,-27,35
5743,800,720,880,710,494,17148,-1904,1496,-785,-11,-2
5746,806,718,881,709,477,17196,-1876,1360,-794,21,-4
5749,805,719,881,706,458,17164,-1824,1472,-796,39,-1
5752,811,714,881,704,447,17108,-1888,1336,-804,29,-20
5755,807,716,882,705,432,17072,-1880,1480,-817,61,18
5758,801,717,880,706,419,17036,-1908,1376,-835,28,-40
5761,803,720,881,709,411,17048,-1872,1340,-852,20,10
5764,805,720,882,710,398,17128,-1860,1436,-871,54,-26
5767,798,724,880,706,389,17140,-1876,1552,-877,41,-17
5770,803,722,881,710,379,17080,-1872,1572,-878,41,-44
5773,800,721,883,713,369,17152,-1976,1412,-860,60,-62
5776,802,720,882,716,356,17080,-1972,1440,-836,62,-54
5779,807,720,885,712,346,17136,-1948,1416,-844,86,-62
5782,813,725,886,714,339,17172,-1936,1400,-830,87,-69
5785,810,721,898,717,335,17132,-1940,1388,-849,62,-47
5788,798,730,880,720,330,17212,-2024,1556,-844,45,-82
5791,816,725,880,719,319,17180,-1992,1436,-859,54,-84
5794,811,730,891,720,309,17184,-1892,1352,-867,-2,-111
5797,816,732,881,720,308,17168,-1976,1516,-910,-2,-80
5800,814,731,880,720,302,17188,-1984,1360,-930,-9,-124
5803,814,726,880,718,292,17112,-1780,1328,-944,-17,-103
5806,813,730,885,714,283,17224,-1972,1452,-944,-38,-111
5809,811,730,880,715,279,17152,-1920,1404,-948,-2,-104
5812,805,725,880,710,272,17252,-1848,1464,-956,9,-132
5815,805,727,880,706,272,17156,-1940,1480,-975,57,-101
5818,812,729,883,703,265,17232,-1832,1520,-1003,46,-102
5821,811,731,882,705,259,17092,-1872,1248,-998,62,-84
5824,807,727,884,700,257,17132,-1900,1496,-1028,75,-116
5827,803,729,880,700,252,17180,-1808,1400,-1034,88,-71
5830,803,723,880,704,248,17192,-1952,1604,-1050,91,-78
5833,802,720,882,705,243,17100,-1872,1496,-1080,72,-73
5836,800,721,880,703,245,17096,-1824,1520,-1034,137,-86
5839,814,720,881,703,240,17124,-1908,1412,-1046,117,-76
5842,799,727,880,713,241,17044,-1816,1404,-1039,120,-71
5845,800,722,883,714,240,17036,-1940,1404,-1056,111,-71
5848,799,727,895,736,232,17028,-1868,1456,-1071,105,-86
5851,803,725,885,717,229,17100,-1860,1536,-1111,65,-102
5854,801,725,880,718,225,17044,-1884,1524,-1049,110,-100
5857,803,725,880,712,221,17012,-1904,1428,-1091,132,-88
5860,803,725,880,718,218,17096,-1860,1420,-1059,133,-83
5863,805,720,883,716,223,17016,-1976,1352,-1070,190,-77
5866,807,726,880,715,217,16928,-1888,1504,-1085,167,-86
5869,813,730,882,719,214,17036,-1988,1396,-1093,146,-112
5872,810,735,885,721,209,17088,-1980,1224,-1086,148,-103
5875,814,730,885,723,210,16972,-1948,1412,-1077,108,-142
5878,812,735,881,729,207,17056,-2016,1400,-1082,74,-124
5881,813,731,880,728,206,17148,-2008,1264,-1098,64,-99
5884,809,731,882,725,206,17176,-2044,1308,-1090,91,-92
5887,811,735,881,725,202,17256,-2024,1184,-1106,100,-87
5890,812,729,880,720,203,17176,-2056,1228,-1136,69,-83
5893,811,736,880,720,197,17072,-1996,1108,-1161,106,-80
5896,827,735,882,713,196,17084,-2064,1216,-1142,98,-83
5899,815,733,885,706,192,17056,-2048,1348,-1151,45,-68
5902,814,735,880,715,192,17172,-2216,1332,-1170,77,-73
5905,816,733,880,704,193,17020,-2120,1380,-1160,45,-73
5908,816,739,885,713,192,17052,-2060,1448,-1176,44,-81
5911,818,736,881,707,192,17032,-2136,1636,-1173,53,-97
5914,816,738,886,703,190,17120,-2164,1616,-1151,39,-84
5917,816,736,883,705,191,17096,-2076,1608,-1137,71,-83
5920,807,737,888,702,187,17096,-1968,1676,-1110,80,-41
5923,806,733,893,707,183,17172,-2060,1568,-1103,62,-52
5926,811,730,883,710,189,17044,-2056,1640,-1040,78,-56
5929,809,731,883,711,189,17112,-2100,1532,-1033,75,-44
5932,806,727,882,712,190,17128,-2024,1580,-1019,84,-55
5935,805,724,880,715,179,17052,-2124,1684,-991,82,-43
5938,800,723,887,710,182,17052,-2116,1704,-942,116,-54
5941,806,726,883,714,180,17012,-2180,1656,-943,102,-3
5944,810,723,885,713,178,17092,-2208,1492,-929,102,-35
5947,810,725,882,717,179,17076,-2012,1404,-932,104,-11
5950,804,727,883,715,176,17184,-2152,1620,-912,110,-5
5953,806,729,883,719,178,17020,-2156,1528,-915,66,-9
5956,803,722,886,723,179,17160,-2092,1364,-925,66,-35
5959,806,726,890,723,179,17168,-2092,1360,-933,53,-26
5962,808,723,881,720,176,17184,-2184,1312,-922,42,-3
5965,805,730,887,722,176,17056,-2180,1368,-927,69,-59
5968,807,727,886,720,176,17052,-2132,1384,-948,40,-18
5971,806,724,886,729,176,17172,-2096,1456,-963,8,-49
5974,805,731,885,720,176,17132,-2124,1448,-957,39,-29
5977,806,730,880,720,174,17060,-2064,1408,-958,56,-15
5980,801,724,887,723,174,17100,-2060,1360,-921,75,-35
5983,807,725,880,720,175,17044,-2064,1352,-921,90,-32
5986,806,731,887,715,174,16936,-1928,1376,-925,69,-51
5989,807,725,887,701,176,17068,-2092,1480,-923,70,-51
5992,810,727,887,719,175,17072,-1904,1436,-950,63,-58
5995,805,720,884,717,176,17056,-1916,1436,-963,24,-74
5998,810,724,881,718,174,17104,-1956,1400,-950,51,-66
6001,800,723,884,720,176,17168,-1980,1512,-914,36,-61
6004,811,721,885,720,178,17016,-1944,1588,-925,20,-55
6007,810,721,882,720,175,17092,-2016,1592,-902,26,-69
6010,807,723,880,720,178,17092,-1912,1720,-871,22,-81
6013,803,726,883,721,176,17096,-2060,1588,-845,23,-65
6016,802,727,881,722,176,17152,-1980,1628,-809,46,-55
6019,802,723,885,720,180,17044,-1960,1828,-783,56,-63
6022,807,723,885,723,176,17100,-1936,1752,-717,68,-50
6025,801,721,883,741,176,17072,-2044,1744,-692,58,-60
6028,803,721,884,722,176,17056,-1876,1752,-649,88,-62
6031,801,726,884,726,176,17108,-1892,1728,-658,84,-73
6034,806,727,891,720,178,17036,-2016,1780,-653,82,-66
6037,801,725,894,721,176,17012,-1984,1568,-665,45,-72
6040,805,722,882,723,176,17080,-1964,1616,-680,34,-77
6043,809,722,885,729,176,17016,-2080,1452,-671,22,-69
6046,807,722,889,727,176,17108,-2012,1408,-671,68,-52
6049,803,725,884,722,176,17136,-2000,1452,-661,45,-63
6052,812,729,885,723,176,17032,-2052,1652,-671,47,-56
6055,809,721,887,720,176,17096,-1992,1360,-672,53,-52
6058,803,720,903,718,176,17000,-2024,1412,-688,112,-83
6061,802,717,890,717,175,16940,-2000,1432,-699,93,-100
6064,806,715,903,718,176,16952,-2108,1536,-741,67,-69
6067,806,717,893,713,175,16864,-2072,1540,-780,56,-104
6070,807,711,888,711,171,17012,-1928,1860,-829,39,-104
6073,806,710,889,707,173,16684,-2092,1540,-904,42,-116
6076,805,709,892,703,174,16644,-2044,1544,-921,27,-127
6079,811,706,895,701,174,16744,-2044,1668,-972,80,-138
6082,797,709,899,694,174,16544,-2128,1668,-1012,80,-148
6085,805,714,898,688,176,16744,-2060,1672,-1067,131,-138
6088,797,720,898,688,176,16764,-2088,1492,-1065,184,-93
6091,797,719,902,688,175,16696,-1880,1724,-1052,208,-67
6094,805,721,907,681,178,16860,-2008,1784,-1059,213,-61
6097,798,720,903,683,176,16828,-1860,1616,-1011,256,55
6100,798,723,897,688,175,16968,-1856,1768,-943,271,60
6103,806,723,898,690,175,17044,-1812,1748,-838,319,129
6106,795,725,896,695,178,17124,-1940,1832,-756,361,200
6109,791,733,893,696,176,17292,-1832,1656,-652,465,241
6112,795,734,890,702,177,17316,-1828,1488,-566,545,280
6115,791,729,890,704,173,17492,-1892,1536,-492,672,331
6118,796,727,891,704,176,17448,-1928,1328,-457,770,353
6121,795,741,884,711,172,17568,-2012,1020,-465,833,393
6124,786,739,881,711,177,17452,-1892,1004,-466,857,387
6127,791,743,880,720,176,17368,-2064,964,-478,799,398
6130,791,746,877,721,176,17204,-2004,1032,-486,651,377
6133,797,746,880,720,176,17272,-1944,952,-461,512,336
6136,795,748,880,727,175,17008,-1996,1224,-381,395,297
6139,806,749,879,729,176,17196,-2016,1004,-356,254,244
6142,816,743,880,733,176,17212,-1864,976,-348,119,191
6145,800,753,880,736,176,17260,-1804,956,-323,73,146
6148,805,737,880,736,174,17200,-1688,940,-311,-15,114
6151,805,739,879,732,176,17312,-1660,772,-302,-59,71
6154,816,742,884,733,174,17420,-1528,900,-319,-94,53
6157,806,738,880,731,176,17432,-1328,968,-357,-109,28
6160,809,741,880,738,175,17480,-1396,1096,-395,-157,-10
6163,813,731,880,731,176,17504,-1180,1032,-479,-157,-48
6166,811,733,889,730,173,17388,-1096,1036,-532,-152,-61
6169,810,730,881,731,172,17424,-1128,1052,-622,-112,-124
6172,815,721,880,729,171,17408,-1216,1016,-714,-111,-158
6175,816,723,896,727,173,17400,-1032,1152,-791,-41,-182
6178,805,722,883,727,174,17468,-1036,1012,-907,-34,-195
6181,816,720,881,725,175,17424,-1172,1220,-1001,-5,-229
6184,816,720,883,727,174,17400,-1108,1168,-1117,19,-247
6187,817,705,882,720,171,17276,-1228,1296,-1199,57,-288
6190,819,706,885,718,172,17168,-1268,1196,-1288,47,-288
6193,817,706,880,721,170,17248,-1332,1204,-1366,68,-298
6196,823,709,887,725,172,17240,-1428,1144,-1435,93,-303
6199,816,719,885,720,171,17208,-1500,1188,-1482,115,-318
6202,821,711,899,721,168,17272,-1580,1264,-1545,164,-295
6205,823,719,894,721,174,17252,-1656,1284,-1611,209,-289
6208,819,716,883,727,172,17188,-1856,1232,-1623,294,-259
6211,822,705,904,731,166,17184,-1848,1408,-1623,320,-243
6214,820,717,880,735,176,17248,-2004,1540,-1651,387,-245
6217,823,721,881,735,170,17084,-2132,1344,-1638,399,-228
6220,818,725,880,736,165,17252,-2140,1364,-1656,418,-198
6223,819,722,880,740,172,17048,-2144,1368,-1730,255,-194
6226,815,727,883,739,167,17056,-2100,1564,-1757,239,-217
6229,816,727,875,752,171,17104,-2216,1468,-1743,271,-183
6232,816,730,881,741,170,17236,-2112,1672,-1758,294,-178
6235,813,727,880,743,169,17136,-2248,1448,-1701,302,-167
6238,804,726,883,739,167,17004,-2252,1552,-1673,279,-145
6241,816,727,880,743,170,17008,-2260,1704,-1562,326,-120
6244,806,733,880,737,172,17084,-2232,1384,-1461,378,-78
6247,811,731,880,738,175,17172,-2328,1724,-1386,490,-57
6250,804,733,880,735,170,17080,-2256,1584,-1308,507,-6
6253,807,732,881,732,169,16988,-2284,1620,-1280,497,18
6256,805,726,882,729,169,17020,-2308,1624,-1209,548,24
6259,806,732,885,725,171,16912,-2220,1584,-1212,596,65
6262,804,735,880,726,171,16864,-2248,1680,-1170,589,103
6265,808,736,880,725,168,16920,-2208,1692,-1197,543,115
6268,805,741,891,727,167,16908,-2128,1660,-1184,552,158
6271,796,736,886,726,166,16900,-2132,1632,-1123,562,204
6274,799,733,890,735,171,17116,-2020,1676,-1068,609,195
6277,801,730,883,731,167,17060,-2060,1504,-1031,631,201
6280,797,729,880,731,176,17092,-2076,1568,-969,655,232
6283,797,721,885,734,166,17132,-1972,1548,-962,650,243
6286,800,724,892,734,169,17280,-1952,1456,-977,679,245
6289,798,727,885,733,167,17216,-1984,1496,-974,704,240
6292,804,720,889,731,167,17208,-1916,1396,-968,679,238
6295,806,720,887,728,173,17044,-1880,1348,-1009,663,219
6298,802,715,890,733,167,17080,-1900,1404,-993,655,208
6301,805,705,888,729,167,17020,-1880,1348,-1030,672,189
6304,807,707,882,729,166,17008,-1860,1380,-1024,650,169
6307,805,704,885,727,170,16940,-1792,1340,-962,635,163
6310,812,709,886,724,170,17004,-1724,1412,-983,607,140
6313,814,709,886,733,171,17068,-1732,1364,-972,592,162
6316,810,709,887,731,171,17092,-1696,1328,-972,568,143
6319,807,715,890,735,171,17208,-1732,1420,-954,562,125
6322,807,708,883,735,170,17216,-1772,1120,-965,554,135
6325,807,710,883,731,171,17340,-1800,1300,-966,580,143
6328,806,718,882,733,175,17384,-1772,1008,-1010,589,125
6331,805,721,890,737,174,17328,-1828,1016,-992,654,114
6334,803,727,886,742,176,17300,-1804,992,-999,655,80
6337,801,726,883,738,172,17208,-1920,904,-1047,692,87
6340,802,733,881,742,174,17296,-1948,992,-1047,719,69
6343,800,734,883,739,173,17188,-1888,952,-1088,766,70
6346,799,736,882,744,176,17096,-1976,1028,-1077,725,59
6349,800,735,884,743,172,17124,-2028,1068,-1114,729,39
6352,802,734,881,745,176,17160,-1996,1172,-1131,698,33
6355,806,733,882,750,176,17180,-2040,1044,-1144,651,20
6358,806,725,885,752,175,17108,-1852,1316,-1131,623,22
6361,802,734,882,759,175,17060,-2000,1168,-1122,576,-1
6364,803,732,888,749,176,17144,-1984,1192,-1113,578,-22
6367,811,733,883,749,176,17184,-1980,1232,-1094,521,-35
6370,813,731,885,747,174,17288,-1908,1424,-1042,493,-45
6373,810,731,899,757,176,17232,-1868,1324,-1035,494,-93
6376,811,730,883,739,176,17224,-1940,1328,-1008,460,-85
6379,816,726,883,735,177,17348,-1992,1396,-988,461,-101
6382,811,725,887,731,176,17296,-1992,1396,-954,430,-149
6385,814,724,881,730,176,17432,-2004,1396,-960,452,-169
6388,811,725,882,729,176,17268,-1968,1384,-947,462,-167
6391,815,724,884,725,175,17232,-2028,1184,-915,451,-162
6394,809,723,881,724,173,17068,-2120,1480,-886,467,-186
6397,811,726,882,720,174,17396,-2068,1264,-879,588,-186
6400,816,727,880,720,175,17060,-2128,1336,-894,384,-240
6403,814,720,885,720,174,16976,-2148,1504,-835,396,-228
6406,809,721,880,720,176,17164,-2156,1396,-809,406,-278
6409,815,727,888,722,176,17056,-2108,1500,-811,468,-251
6412,812,725,880,718,173,17024,-2208,1480,-754,534,-267
6415,815,735,879,717,176,17040,-2012,1616,-754,547,-267
6418,817,723,880,720,171,17164,-2140,1572,-747,582,-259
6421,813,730,879,718,170,17084,-2088,1548,-735,667,-222
6424,816,727,884,715,167,17192,-2060,1672,-699,712,-192
6427,816,727,876,731,173,17076,-2068,1512,-704,649,-143
6430,816,731,880,727,174,16968,-2008,1508,-719,623,-109
6433,819,733,877,722,167,17008,-2068,1496,-698,538,-83
6436,815,736,879,723,169,17112,-1996,1616,-698,514,-92
6439,818,729,880,726,167,16912,-1964,1568,-673,513,-72
6442,815,725,885,723,173,17032,-1928,1636,-689,501,-55
6445,816,731,880,724,163,17024,-1960,1628,-685,478,-49
6448,816,726,881,717,169,16984,-1852,1744,-713,489,-40
6451,816,733,882,711,170,16932,-1820,1696,-687,467,-43
6454,817,721,880,704,167,17008,-1768,1828,-706,534,-46
6457,814,723,882,707,171,16952,-1740,1788,-717,594,-45
6460,816,720,882,707,170,16988,-1688,1844,-744,611,-41
6463,809,719,880,706,164,16912,-1544,1712,-776,650,-39
6466,814,720,880,704,170,16864,-1616,1708,-842,698,-55
6469,816,721,882,704,172,16964,-1524,1740,-867,764,-15
6472,806,725,882,697,167,16892,-1588,1668,-876,812,7
6475,802,727,883,696,170,17028,-1604,1736,-958,867,64
6478,802,725,881,701,167,17000,-1592,1836,-1015,825,69
6481,801,723,878,699,167,17044,-1584,1932,-1046,841,81
6484,800,733,882,705,173,17004,-1572,1764,-1115,812,102
6487,795,732,883,695,168,17088,-1516,1764,-1170,873,116
6490,803,741,885,703,171,17012,-1592,1704,-1225,809,161
6493,801,732,880,707,173,17172,-1500,1592,-1283,808,146
6496,803,731,876,710,171,17332,-1460,1552,-1303,805,169
6499,798,733,880,716,166,17304,-1488,1668,-1356,811,162
6502,801,731,880,715,169,17272,-1468,1732,-1384,829,125
6505,799,729,880,711,175,17308,-1488,1864,-1427,845,167
6508,800,727,879,706,167,17192,-1464,1740,-1430,856,122
6511,801,727,880,707,169,17260,-1376,1768,-1437,897,110
6514,797,723,882,704,167,17148,-1524,1700,-1452,944,65
6517,805,718,880,702,167,17244,-1432,1700,-1442,953,19
6520,800,718,882,701,167,17132,-1476,1792,-1440,1047,-23
6523,806,718,882,705,167,17184,-1424,1772,-1437,1163,-23
6526,806,719,883,703,165,17184,-1500,1656,-1426,1221,-35
6529,809,715,880,688,165,17144,-1576,1660,-1451,1234,-34
6532,804,717,885,701,163,17156,-1500,1444,-1458,1229,-56
6535,800,718,884,697,165,17020,-1584,1688,-1495,1355,-60
6538,810,719,887,700,164,17124,-1516,1592,-1447,1456,-49
6541,823,729,887,694,164,17028,-1644,1468,-1435,1541,-86
6544,805,720,886,693,163,17020,-1648,1396,-1397,1597,-72
6547,809,721,882,706,163,16944,-1816,1392,-1415,1632,-64
6550,809,723,882,708,162,16960,-1940,1464,-1411,1662,-45
6553,806,720,881,717,163,17104,-1848,1328,-1447,1682,13
6556,810,730,886,720,162,17008,-2080,1240,-1468,1753,29
6559,810,724,880,726,163,17084,-2164,1212,-1534,1788,68
6562,813,731,880,729,162,17172,-2196,1300,-1542,1861,105
6565,806,738,882,733,165,17220,-2176,1248,-1498,1915,162
6568,802,742,878,738,163,17280,-2248,1076,-1509,1944,206
6571,802,740,877,745,164,17024,-2264,1208,-1473,1960,239
6574,802,743,880,750,160,17016,-2448,1216,-1449,1860,225
6577,807,741,885,739,162,17168,-2596,1176,-1415,1920,237
6580,806,738,880,757,168,16940,-2744,1076,-1384,1803,232
6583,810,726,880,753,162,17016,-2824,1256,-1286,1774,225
6586,805,726,882,754,164,16980,-2780,1084,-1180,1667,254
6589,807,720,883,753,163,16968,-2948,1160,-1143,1571,247
6592,811,709,880,752,161,16996,-2988,1200,-1012,1472,282
6595,814,703,882,747,163,16960,-2908,1344,-914,1555,301
6598,802,690,886,746,166,17036,-3032,1324,-770,1506,353
6601,815,691,887,746,167,16904,-3144,1308,-621,1402,379
6604,815,687,886,745,161,17032,-3244,1284,-495,1322,412
6607,820,674,891,739,159,17028,-3292,1312,-323,1307,496
6610,817,672,893,735,167,17168,-3600,1356,-139,1323,555
6613,821,673,890,737,166,17176,-3504,1332,59,1263,572
6616,818,683,895,734,171,17232,-3832,1432,188,1247,642
6619,825,684,897,726,166,17356,-3960,1328,305,1117,693
6622,819,692,896,730,166,17524,-4088,1340,386,1038,742
6625,817,688,896,728,165,17532,-4196,1620,461,1022,788
6628,825,695,913,733,163,17596,-4440,1520,486,856,816
6631,816,698,897,738,170,17464,-4496,1528,496,691,819
6634,832,700,893,747,165,17420,-4728,1524,449,526,824
6637,816,707,896,754,166,17420,-4784,1504,416,386,842
6640,816,704,895,764,169,17480,-5108,1456,406,148,890
6643,814,710,891,773,169,17280,-5308,1544,326,-145,865
6646,807,714,881,775,167,16960,-5508,1700,294,-400,961
6649,799,708,885,782,174,16712,-5620,1640,216,-812,995
6652,793,709,894,780,174,16432,-5720,2036,252,-1129,1057
6655,788,707,896,787,167,16364,-5656,2116,257,-1384,1205
6658,790,698,899,779,170,16192,-5816,2384,411,-1663,1373
6661,789,686,906,767,166,16040,-5664,2612,517,-2167,1602
6664,789,689,912,770,174,16088,-5828,2896,880,-1611,1807
6667,781,697,913,759,174,16016,-5708,2796,1239,-1539,2075
6670,787,705,926,752,174,15088,-5972,3080,1815,-1622,2516
6673,778,707,935,756,171,15136,-5908,2592,2163,-2590,3021
6676,783,710,944,747,174,14716,-6212,2916,2773,-2880,3404
6679,780,707,969,734,174,14904,-6012,2876,3129,-2589,3668
6682,791,707,971,734,174,14972,-6280,3232,3899,-2078,4136
6685,794,716,993,715,170,14416,-6252,2972,4171,-2100,4479
6688,784,720,1008,704,169,14332,-6444,2932,4936,-2179,4923
6691,780,720,1022,693,172,14464,-6824,2508,5484,-1925,5377
6694,769,719,1050,672,169,13876,-7164,2036,6022,-2144,5947
6697,767,720,1061,672,171,13872,-7548,2196,6579,-2419,6630
6700,766,717,1073,650,166,13284,-8016,1604,7340,-2924,7338
6703,778,715,1097,647,167,13248,-7996,1924,7397,-3420,8014
6706,773,710,1104,641,174,13200,-8416,1880,7613,-3649,8590
6709,767,692,1115,658,165,13448,-8812,2020,7639,-3913,9113
6712,763,689,1118,649,167,13940,-9080,2392,7920,-4278,9602
6715,753,683,1115,647,170,13908,-9144,3004,7593,-4657,9974
6718,749,655,1104,655,177,14568,-9708,2732,7637,-5318,10376
6721,750,638,1103,651,176,14712,-10112,2848,7633,-5892,10671
6724,757,624,1088,669,180,15316,-10280,2796,7666,-5962,11147
6727,744,590,1074,681,176,16068,-10708,3512,7935,-6643,11469
6730,749,571,1064,690,173,16252,-11000,2216,8069,-7888,11711
6733,745,553,1057,702,175,16768,-11368,2880,8374,-7738,11956
6736,752,538,1040,715,176,18020,-11412,2964,8824,-7336,12304
6739,734,530,1023,721,176,18676,-11604,2428,9381,-7052,12627
6742,750,548,1008,738,176,19208,-11740,2492,9779,-6728,12876
6745,732,528,998,737,176,19680,-11824,2128,10331,-6384,13026
6748,756,528,995,731,176,19924,-11496,2524,10988,-6269,13149
6751,772,528,982,707,177,20156,-11184,2160,11426,-6150,13303
6754,802,528,976,704,175,20244,-10816,2112,12181,-5935,13505
6757,793,543,982,702,175,20184,-10164,1732,12532,-6427,13678
6760,816,543,958,688,176,20816,-9864,1972,13131,-5462,13485
6763,817,557,965,683,175,21296,-9520,1892,13936,-5433,13544
6766,832,562,960,679,173,21232,-8480,1832,13700,-5550,13563
6769,812,580,959,685,176,21936,-8648,1272,14189,-4951,13841
6772,826,597,946,681,175,22684,-7752,828,14381,-4150,13775
6775,821,617,957,684,167,23460,-7504,732,14178,-2521,13736
6778,807,629,944,682,166,23564,-7240,648,13838,-1634,13858
