Time,MMG1,MMG2,MMG3,MMG4,EMG,AccelX,AccelY,AccelZ,GyroX,GyroY,GyroZ
0,847,781,977,768,2102,17136,-1892,1724,-753,-61,-76
4,837,786,971,763,1995,17144,-1840,1936,-759,-50,-75
7,851,806,973,745,1890,17004,-1836,1656,-777,-56,-76
10,816,771,967,739,1808,17244,-1868,1688,-793,-71,-55
13,818,769,962,745,1734,17180,-1936,1712,-806,-34,-85
16,816,767,965,736,1660,17068,-1948,1864,-803,-12,-57
19,820,766,960,741,1589,17192,-1900,1860,-835,-38,-52
22,817,766,974,737,1520,17124,-1968,1868,-830,32,-55
25,817,766,963,741,1455,17184,-1876,1760,-841,21,-78
28,818,768,960,726,1392,17088,-1868,1796,-836,13,-61
31,817,767,962,742,1335,17012,-1896,1736,-852,20,-53
34,816,762,961,741,1284,17080,-1916,1724,-857,17,-84
37,817,772,961,743,1230,17052,-1872,1724,-873,27,-52
40,816,772,965,741,1177,17180,-1992,1752,-863,21,-65
43,816,774,961,747,1135,17100,-1884,1820,-858,10,-41
46,818,769,960,752,1088,17104,-1976,1708,-861,25,-57
49,816,771,966,753,1044,17156,-1940,1876,-865,45,-57
52,816,775,959,751,995,17116,-1896,1788,-863,11,-22
55,815,773,959,747,958,17020,-1992,1856,-849,23,-45
58,815,777,958,753,915,17080,-2020,1820,-864,-6,-46
61,820,773,961,747,880,16980,-2076,1756,-858,24,-19
64,819,771,963,743,854,17072,-2060,1792,-867,3,-33
67,821,774,961,742,820,17112,-1960,1840,-874,15,-34
70,817,771,959,742,787,17260,-2044,1772,-876,31,-28
73,815,775,966,741,756,17032,-2040,1876,-881,44,-7
76,816,780,970,749,731,17060,-1968,1724,-890,54,-12
79,820,774,961,742,704,17144,-1968,1768,-919,25,-4
82,818,775,961,740,682,17156,-2008,1656,-915,69,1
85,818,773,960,737,662,17088,-2044,1796,-924,23,-17
88,820,775,960,733,642,17132,-2008,1628,-939,23,-28
91,816,771,963,725,616,17112,-1968,1780,-939,-3,-51
94,816,771,960,722,595,17152,-2016,1944,-939,16,-9
97,816,767,960,725,576,17052,-1896,1776,-969,4,-28
100,819,771,967,729,560,17052,-1960,1920,-924,2,-13
103,816,770,963,727,542,17024,-1972,1820,-932,-4,-20
106,818,768,960,737,527,17060,-1976,1864,-924,-5,-10
109,814,766,959,733,506,17044,-1920,1736,-911,16,-22
112,816,769,963,733,495,16964,-1964,1776,-903,-11,7
115,816,767,962,736,477,17152,-1984,1640,-922,-9,-13
118,818,768,960,738,464,17128,-1888,1748,-895,1,-19
121,816,767,964,741,452,17100,-1972,1692,-917,-5,-31
124,817,767,961,743,436,17132,-1976,1720,-878,-43,-32
127,816,769,962,749,428,17188,-1948,1780,-890,-32,-50
130,816,771,963,749,418,17088,-2024,1720,-884,-29,-38
133,816,768,960,752,405,17056,-1916,1608,-868,-10,-68
136,817,770,960,752,394,17180,-1964,1788,-871,-8,-64
139,816,775,961,753,384,17096,-1972,1756,-872,-14,-95
142,807,769,961,751,384,17140,-1996,1640,-884,-30,-72
145,817,770,966,746,371,17184,-1984,1668,-887,-35,-114
148,816,775,959,742,361,17136,-1952,1912,-859,-11,-98
151,819,778,963,743,353,17088,-2076,1784,-865,-40,-119
154,818,773,958,743,341,17116,-1976,1812,-865,-3,-117
157,816,771,960,738,336,17144,-2064,1800,-871,-16,-133
160,817,774,959,746,334,17036,-2008,1872,-868,24,-125
163,815,768,965,739,323,17036,-1988,1844,-868,4,-134
166,823,772,960,740,315,17116,-2044,1932,-896,27,-135
169,818,773,957,743,306,17140,-2044,1888,-868,70,-135
172,824,779,957,743,305,17096,-1964,1840,-882,63,-122
175,818,773,960,742,300,17076,-1936,1868,-879,70,-103
178,817,774,961,741,291,17012,-1956,1876,-876,51,-104
181,820,775,960,739,288,17176,-2024,1916,-877,110,-92
184,817,773,962,736,285,17148,-2024,1868,-866,98,-96
187,817,775,961,743,284,17132,-1968,1796,-869,120,-102
190,818,779,958,734,280,17144,-1980,1880,-834,120,-70
193,818,782,960,734,271,17076,-2072,1764,-844,55,-69
196,817,774,954,727,272,17092,-2152,1972,-828,41,-76
199,822,778,961,731,265,17036,-2132,1840,-811,48,-72
202,810,777,959,723,261,17132,-2076,1920,-834,64,-106
205,806,771,960,721,258,17068,-2084,1896,-827,75,-105
208,818,771,960,721,254,17032,-2064,1880,-804,85,-108
211,818,771,959,720,254,17116,-2076,1912,-816,100,-104
214,819,778,957,720,250,16968,-1996,1920,-791,127,-60
217,826,775,961,720,243,16976,-1888,1804,-804,83,-65
220,817,771,962,721,241,16944,-2008,1880,-819,33,-78
223,819,768,960,720,240,17004,-2084,1964,-801,0,-37
226,818,771,962,716,239,17164,-1996,1964,-792,-78,-46
229,822,770,960,720,236,17184,-1908,1804,-850,-100,-55
232,818,769,960,716,233,17220,-1976,1788,-839,-38,-104
235,816,773,961,715,237,17220,-1984,1656,-842,-15,-91
238,816,768,958,722,227,17132,-1968,1908,-829,79,-101
241,816,771,963,721,225,17220,-1968,1788,-808,55,-90
244,818,771,962,723,222,17244,-1948,1720,-836,116,-121
247,825,771,960,730,218,17156,-1952,1924,-826,136,-121
250,817,772,960,725,218,17048,-1968,1928,-775,178,-77
253,816,773,959,726,214,16932,-1876,1736,-815,-78,-100
256,815,767,962,726,215,16920,-1964,1908,-784,-21,-94
259,817,775,960,729,208,17080,-1732,1896,-836,83,-135
262,816,773,959,726,207,17056,-1716,1976,-785,259,-31
265,816,775,963,735,208,16908,-1864,1944,-848,-35,-61
268,817,773,965,735,208,16804,-1976,1968,-841,-110,-49
271,816,775,960,739,202,17072,-1988,1976,-793,5,-46
274,816,774,960,737,200,17160,-1980,1944,-831,1,-69
277,821,775,958,740,204,17284,-1920,1808,-877,70,-94
280,815,771,958,752,197,17396,-1888,1764,-881,85,-100
283,817,772,960,747,195,17268,-1992,1828,-867,137,-125
286,819,781,958,747,202,17184,-2116,1844,-890,145,-146
289,817,775,961,745,197,17196,-2004,1700,-889,110,-148
292,819,770,958,746,194,17196,-2112,1808,-933,110,-173
295,819,774,960,743,197,17124,-2072,1688,-939,33,-176
298,821,779,957,738,198,17104,-2148,1680,-940,-23,-149
301,811,779,958,738,197,17068,-2092,1840,-929,6,-178
304,815,772,959,740,193,17028,-1992,1812,-933,-72,-144
307,815,778,960,735,192,17080,-2064,1712,-943,38,-164
310,817,771,959,752,192,17152,-1992,1732,-926,61,-133
313,817,777,960,739,193,16976,-1980,1956,-888,135,-111
316,816,781,962,742,192,16924,-1996,1880,-914,102,-78
319,817,778,959,743,191,17032,-1988,1852,-919,66,-89
322,816,779,962,741,193,17100,-1984,1980,-929,53,-72
325,822,780,957,751,192,17064,-1896,1804,-950,60,-85
328,823,777,959,750,188,17028,-1912,1816,-950,76,-91
331,821,778,961,752,192,17108,-2044,1872,-931,35,-68
334,822,778,959,754,189,17124,-1836,1880,-945,58,-78
337,820,777,956,753,189,17112,-1948,1828,-944,101,-100
340,817,779,958,752,187,17032,-1884,1952,-954,81,-92
343,817,774,954,752,187,16988,-1840,1768,-964,105,-108
346,816,784,959,749,181,17060,-1856,1856,-979,66,-119
349,819,779,959,752,180,17104,-1940,1888,-1024,9,-125
352,815,778,960,747,183,17036,-1924,1856,-1028,-52,-116
355,816,778,956,742,183,17076,-1992,1768,-1018,-52,-104
358,822,778,985,735,182,17052,-1900,1904,-1057,-58,-106
361,826,773,962,730,181,17136,-1940,1912,-1062,-11,-67
364,816,773,958,733,179,17144,-1940,1888,-1070,37,-67
367,819,773,958,731,183,17108,-2000,1944,-1072,55,-15
370,819,772,958,729,183,17116,-1940,1724,-1086,23,-25
373,819,774,963,726,176,17148,-1888,1928,-1089,54,20
376,821,770,960,731,178,17036,-1864,1776,-1092,6,31
379,817,773,959,727,182,17036,-1800,1960,-1122,11,33
382,817,769,960,721,181,17016,-1912,1844,-1145,-41,61
385,816,769,966,723,177,17164,-1784,1920,-1168,-18,75
388,820,765,960,732,178,17044,-1872,1860,-1183,-70,73
391,822,768,966,731,177,17044,-1824,1944,-1221,-32,66
394,817,769,966,731,178,17072,-1776,1996,-1220,-28,82
397,817,771,962,737,181,17136,-1808,1980,-1236,-22,96
400,820,770,965,737,181,17232,-1744,1932,-1277,-58,123
403,818,771,962,745,179,17184,-1760,1896,-1295,-53,120
406,813,770,961,730,177,17184,-1720,1756,-1357,-72,108
409,816,768,960,749,179,17164,-1756,1860,-1384,-55,123
412,817,769,960,752,177,17240,-1600,1884,-1415,-48,125
415,819,787,963,752,183,17196,-1700,1924,-1459,-47,123
418,821,770,959,751,181,17152,-1704,1904,-1471,-12,136
421,818,775,961,745,181,17060,-1820,1840,-1502,4,117
424,821,784,961,751,180,17132,-1760,1780,-1518,36,124
427,819,783,966,749,181,17108,-1740,1888,-1555,35,104
430,817,779,960,735,179,17084,-1772,1936,-1562,65,96
433,816,780,960,746,183,16980,-1868,1876,-1604,46,117
436,814,784,962,749,179,16968,-1860,1868,-1635,31,108
439,822,781,955,749,181,17072,-1804,1772,-1642,1,111
442,816,775,963,749,179,17132,-1800,2044,-1675,17,103
445,820,778,962,747,181,17008,-1872,1764,-1703,20,118
448,832,784,965,743,179,17020,-1824,1944,-1729,27,127
451,825,784,965,747,181,17028,-1744,2032,-1728,45,118
454,816,778,966,739,182,17208,-1800,1944,-1757,32,119
457,818,775,963,737,187,17096,-1824,1816,-1776,22,134
460,821,782,960,743,184,17180,-1796,1856,-1794,54,144
463,823,779,963,749,184,17108,-1764,1972,-1815,59,131
466,818,784,965,752,181,17172,-1788,1916,-1811,45,145
469,817,777,966,752,183,17180,-1924,1924,-1828,80,149
472,823,779,960,751,185,17172,-1836,1892,-1855,71,138
475,822,784,963,754,186,17228,-1880,1816,-1817,43,144
478,827,773,963,752,181,17116,-1888,1908,-1876,54,144
481,818,784,964,752,184,17092,-1980,1840,-1823,58,113
484,818,783,962,752,183,17188,-2008,1956,-1846,9,118
487,823,779,959,754,182,16972,-2020,2020,-1849,19,118
490,820,784,961,753,187,17084,-1960,1880,-1843,4,103
493,818,784,962,757,189,17088,-2092,1856,-1845,7,104
496,829,780,966,759,183,17192,-2072,1972,-1835,13,90
499,821,784,966,767,183,17056,-2160,1764,-1821,16,88
502,821,784,961,766,181,17104,-2112,1996,-1831,16,92
505,823,784,959,767,186,17116,-2112,1836,-1796,27,71
508,817,783,960,763,182,17084,-2092,1828,-1807,31,79
511,818,784,960,768,178,17024,-2244,2028,-1777,-5,67
514,816,783,963,752,181,17108,-2192,1936,-1769,23,67
517,817,784,967,762,179,17060,-2188,1920,-1747,15,68
520,824,783,960,759,178,17036,-2204,1912,-1714,7,63
523,821,782,962,757,180,17060,-2228,1992,-1660,10,49
526,822,783,976,757,181,17008,-2228,1852,-1660,12,61
529,829,780,961,754,182,16916,-2232,1800,-1624,24,25
532,822,784,962,752,181,17120,-2296,1908,-1598,-30,49
535,820,778,971,751,182,16988,-2240,2008,-1591,4,40
538,820,784,967,745,186,17000,-2368,1840,-1546,-43,75
541,819,784,965,751,183,17064,-2232,1904,-1552,-20,69
544,817,784,970,747,183,17116,-2232,1848,-1518,-26,53
547,819,779,967,741,181,17144,-2296,1880,-1507,-5,47
550,823,779,964,740,179,17008,-2224,1920,-1465,6,65
553,816,777,963,742,187,17100,-2240,1984,-1431,-8,47
556,819,782,963,747,177,17208,-2296,1848,-1425,-20,75
559,819,781,960,749,183,17120,-2308,1796,-1421,-7,87
562,817,781,963,748,185,17132,-2200,1912,-1415,2,88
565,823,781,963,747,179,17160,-2220,1884,-1416,-23,75
568,819,774,961,752,182,17084,-2252,1836,-1401,-24,79
571,818,775,975,752,182,17128,-2264,1712,-1393,-21,80
574,819,778,963,755,180,17160,-2188,1932,-1378,-31,54
577,826,774,964,757,182,17172,-2344,1720,-1367,-9,73
580,825,781,962,759,177,17104,-2300,1792,-1375,-22,64
583,819,777,959,770,180,17112,-2272,1808,-1368,-69,76
586,821,780,962,763,178,16976,-2332,1768,-1344,-72,43
589,818,775,965,765,178,17028,-2256,1712,-1317,-62,57
592,816,775,961,768,182,17052,-2244,1736,-1304,-67,54
595,817,786,963,769,178,17028,-2256,1800,-1293,-68,41
598,818,772,962,770,180,17024,-2340,1864,-1272,-69,53
601,816,778,976,768,177,16932,-2300,1884,-1253,-57,63
604,821,773,967,769,177,17056,-2168,1832,-1241,-30,48
607,817,767,962,768,181,17068,-2220,1636,-1204,-21,70
610,820,759,967,762,178,16872,-2200,1636,-1199,-17,60
613,817,770,963,759,181,16924,-2240,1928,-1170,-21,79
616,816,769,971,761,177,16988,-2140,1748,-1155,-17,72
619,818,767,971,758,182,16984,-2192,1736,-1142,-23,73
622,819,771,965,761,178,17032,-2148,1804,-1105,-30,89
625,816,773,967,755,177,16996,-2064,1948,-1120,-31,86
628,820,774,971,755,181,17064,-2044,2004,-1087,-19,96
631,820,781,970,746,183,17092,-2224,1808,-1087,-11,113
634,822,777,965,755,179,17012,-2108,1924,-1076,-16,110
637,817,774,969,753,180,17132,-2112,1880,-1061,-17,102
640,819,772,965,755,181,17108,-2104,1800,-1082,1,106
643,815,774,970,752,178,17112,-2160,1880,-1065,-10,105
646,818,771,966,755,181,17160,-2256,1792,-1069,-28,84
649,821,774,976,747,183,17080,-2144,1788,-1059,-59,96
652,817,772,961,741,179,17188,-2156,1732,-1061,-39,91
655,839,776,964,743,177,17100,-2216,1668,-1047,-29,97
658,820,775,965,747,179,17076,-2348,1892,-1046,-69,78
661,823,778,964,746,181,17080,-2244,1768,-1017,-37,63
664,816,768,962,743,186,17056,-2252,1776,-1026,-78,77
667,821,774,967,745,183,17072,-2232,1700,-1010,-95,53
670,819,765,965,743,179,16960,-2296,1696,-973,-91,60
673,817,779,966,740,182,17072,-2216,1808,-972,-111,42
676,816,773,964,745,181,17040,-2152,1812,-963,-91,51
679,817,774,960,746,179,17020,-2200,1760,-928,-108,72
682,819,779,961,743,179,17100,-2200,1876,-907,-97,65
685,815,772,961,749,183,17040,-2272,1780,-895,-109,58
688,817,774,963,747,176,16900,-2156,1912,-874,-99,88
691,816,773,965,750,180,17088,-2272,1912,-878,-89,80
694,819,771,963,752,183,17072,-2044,1712,-867,-69,73
697,841,773,963,752,182,17112,-2140,1656,-845,-93,97
700,817,771,965,751,183,17172,-2112,1812,-862,-97,69
703,818,773,967,753,178,17072,-2056,1716,-778,30,69
706,819,771,964,752,179,17132,-2112,1864,-800,-42,79
709,816,775,963,752,186,17072,-2268,1732,-802,-93,74
712,818,757,965,751,179,16992,-2176,1656,-784,-60,51
715,816,771,960,752,179,17040,-2112,1844,-740,-46,56
718,821,769,960,750,178,17032,-2152,1952,-748,-40,43
721,817,772,970,752,180,17012,-2232,1840,-733,-33,13
724,816,775,965,751,178,17096,-2180,1752,-707,3,16
727,819,774,960,772,176,17132,-2164,1776,-695,30,36
730,817,771,966,752,180,17036,-2124,1832,-708,0,-15
733,816,777,964,747,182,17124,-2132,1728,-707,3,-8
736,822,771,960,750,179,17000,-2092,1904,-691,5,-7
739,821,769,965,750,176,17036,-2196,1780,-690,-39,-33
742,816,771,967,746,179,17104,-2136,1728,-661,-60,-11
745,819,771,965,747,177,17072,-2300,1800,-672,-42,-18
748,819,772,967,743,177,17008,-2256,1732,-659,-46,-22
751,818,770,962,745,176,17076,-2240,1828,-633,-35,-9
754,816,778,967,740,177,17044,-2240,1960,-626,-19,-24
757,817,770,965,735,176,17112,-2208,1904,-612,-55,-15
760,819,769,961,730,176,17060,-2244,1824,-591,-66,-21
763,816,771,962,726,175,17160,-2136,1724,-587,-78,-1
766,818,775,962,721,173,17100,-2204,1736,-578,-80,-29
769,816,770,964,727,176,17096,-2132,1776,-552,-59,-14
772,821,769,963,724,175,17088,-2228,1828,-555,-50,-22
775,819,768,963,727,172,17180,-2124,1904,-542,-47,-36
778,819,769,964,726,171,17004,-2144,1804,-514,-50,-27
781,818,769,961,733,169,16960,-2144,1860,-532,-76,-28
784,821,777,967,731,172,16992,-2236,1768,-501,-88,-12
787,818,772,966,734,166,17068,-2152,1744,-492,-52,-23
790,819,778,964,734,166,17052,-2240,1812,-480,-51,-32
793,819,771,964,736,171,17096,-2236,1952,-455,-42,-29
796,819,777,961,741,167,17004,-2216,1756,-444,-89,-22
799,819,768,960,746,165,16892,-2184,1756,-401,-83,-20
802,822,769,965,742,166,17232,-2152,1636,-378,-86,-61
805,827,769,963,743,167,17000,-2200,1896,-339,-103,-64
808,817,770,982,747,172,17028,-2148,1832,-311,-80,-53
811,817,769,966,747,167,17120,-2200,1972,-257,-50,-54
814,819,769,960,747,164,17228,-2152,1848,-272,-52,-73
817,817,770,960,746,166,17080,-2192,1872,-260,-78,-73
820,817,773,962,738,162,17092,-2152,1904,-243,-94,-48
823,818,771,960,750,163,17124,-2144,1808,-224,-47,-50
826,816,770,965,747,162,17112,-2256,1892,-199,-28,-46
829,823,771,965,748,163,17084,-2224,1944,-194,-45,-53
832,821,769,967,749,163,17044,-2204,1900,-195,-43,-47
835,818,773,961,749,163,17064,-2272,1832,-177,-37,-46
838,818,767,978,745,160,17068,-2232,1840,-165,-33,-47
841,817,768,961,742,167,17104,-2232,1792,-177,-32,-57
844,817,764,963,746,169,17156,-2296,1848,-178,-53,-43
847,820,771,963,743,163,17044,-2132,1848,-162,-50,-20
850,816,770,960,743,162,17124,-2244,1824,-173,-69,-35
853,810,770,962,738,163,17148,-2212,1824,-183,-65,-36
856,822,769,958,736,163,17164,-2200,1820,-204,-48,-66
859,816,773,960,735,163,17036,-2128,1832,-220,-59,-48
862,819,771,963,733,162,17032,-2144,1720,-207,-67,-51
865,816,769,962,738,163,17116,-2224,1800,-185,-84,-43
868,816,771,958,738,161,17140,-2172,1768,-208,-70,-53
871,816,763,960,740,165,17036,-2172,1776,-172,-107,-49
874,826,769,961,741,166,17052,-2104,1772,-192,-88,-72
877,818,773,961,738,164,17100,-2040,1936,-176,-90,-76
880,817,770,959,744,162,17112,-2080,1812,-172,-107,-56
883,823,768,961,741,161,17084,-2216,1744,-153,-100,-83
886,816,769,957,739,170,17120,-2152,1840,-171,-64,-59
889,816,768,959,739,165,17072,-2036,1868,-144,-72,-53
892,817,771,958,745,165,17052,-2044,1712,-163,-68,-56
895,819,774,961,753,165,17072,-2028,1876,-152,-90,-48
898,820,771,957,751,170,17000,-2080,1780,-156,-82,-39
901,820,765,961,742,167,17144,-1996,1772,-149,-90,-22
904,818,765,960,748,163,17104,-1852,1736,-159,-115,-12
907,816,769,960,746,164,17136,-2068,1796,-162,-93,-23
910,817,775,959,744,162,16940,-2064,1780,-158,-102,-35
913,816,762,961,746,166,17012,-1976,1892,-159,-75,6
916,817,763,962,743,167,17072,-1892,1880,-191,-55,11
919,815,767,964,749,170,17048,-1948,1804,-176,-95,-1
922,820,768,963,741,167,17036,-2032,2068,-215,-92,0
925,816,770,962,741,172,17124,-2096,1916,-213,-35,-11
928,817,767,966,741,172,17072,-2004,1928,-220,-40,-1
931,821,763,963,739,166,17148,-1992,1860,-238,-45,8
934,816,765,961,734,167,17184,-1916,1904,-258,7,3
937,817,765,963,736,169,17096,-1944,1948,-230,-17,-1
940,818,765,962,737,170,17172,-2072,1864,-270,-32,-24
943,818,768,965,737,165,17140,-2040,1892,-265,-18,-5
946,818,770,960,736,168,17132,-2072,1872,-280,-23,-8
949,820,772,962,737,170,17220,-2096,1812,-255,-15,-21
952,818,772,963,738,170,17172,-2076,1880,-276,-22,-11
955,816,769,962,738,169,17228,-2040,1800,-267,-12,-27
958,817,771,960,737,166,17168,-2064,1792,-279,-1,-27
961,821,769,958,752,165,17164,-2168,1756,-281,-31,-42
964,822,774,961,735,161,17144,-2188,1792,-294,-35,-25
967,823,771,961,742,170,17204,-2168,1724,-289,-42,-34
970,820,771,956,745,171,17044,-2124,1860,-281,-42,-37
973,831,775,958,745,166,17080,-2128,1928,-294,-63,-57
976,816,773,960,740,167,17072,-2112,1808,-295,-53,-71
979,819,770,960,749,164,17008,-2000,1852,-279,-63,-33
982,816,774,958,747,165,17168,-2088,1980,-259,-75,-61
985,822,771,960,750,164,17048,-1936,1796,-306,-105,-64
988,816,774,960,749,163,17112,-1968,1888,-294,-57,-59
991,817,774,959,750,162,17132,-1908,1800,-277,-87,-35
994,816,771,960,750,164,17132,-1980,1916,-317,-49,-32
997,821,771,959,752,161,17176,-1908,1912,-305,-34,-34
1000,816,774,959,752,163,17208,-1880,1984,-336,-19,-41
1003,816,769,961,752,162,17064,-1880,1796,-339,-20,-43
1006,820,775,963,751,162,17044,-1764,1984,-379,-6,-19
1009,820,757,960,752,161,17216,-1876,1888,-352,-16,-28
1012,809,771,963,756,163,17116,-1904,2112,-377,-1,-37
1015,820,768,963,751,165,17060,-2008,1788,-415,13,-45
1018,817,773,961,752,163,17000,-1904,1876,-441,21,-45
1021,817,772,959,743,167,17156,-1840,1840,-475,22,-26
1024,826,773,959,742,167,17164,-1940,1892,-500,25,-43
1027,816,774,960,738,169,17108,-1932,1940,-539,66,-23
1030,819,777,960,738,170,17060,-1876,1888,-550,6,-15
1033,817,777,960,738,164,17116,-1952,1984,-604,18,-31
1036,836,775,961,737,175,16972,-1916,1844,-586,3,-23
1039,822,772,953,742,170,17048,-1964,2064,-629,14,-6
1042,820,772,959,741,170,17120,-1884,1940,-654,2,-35
1045,816,773,962,739,174,17180,-1968,1864,-685,-15,-14
1048,819,773,959,737,167,17060,-1844,1936,-707,14,-7
1051,819,777,956,741,164,17124,-2088,1820,-722,18,-6
1054,822,779,960,743,170,17056,-1960,1924,-737,17,18
1057,822,779,961,742,169,17036,-2004,1776,-771,8,23
1060,821,779,960,743,170,17084,-2036,1852,-803,31,20
1063,819,773,963,746,170,17048,-2076,1876,-773,28,23
1066,818,776,962,753,170,17072,-2076,1868,-816,-11,39
1069,817,772,959,751,173,17104,-1968,1844,-797,-16,29
1072,818,774,960,753,172,17084,-2032,1828,-820,-13,16
1075,820,771,960,745,175,17132,-2032,1812,-824,-46,30
1078,816,763,963,750,176,17024,-1956,1864,-859,-9,29
1081,820,779,964,749,176,17024,-2032,1896,-820,-3,55
1084,820,771,961,747,173,17108,-2132,1980,-828,-25,64
1087,821,772,960,750,176,17148,-1972,1884,-826,5,75
1090,819,768,958,751,175,17128,-2088,1888,-837,18,94
1093,821,770,960,754,173,17144,-2096,1856,-856,-12,97
1096,820,775,960,752,176,17132,-1996,1884,-842,8,71
1099,823,770,973,751,176,17144,-2056,1968,-884,37,94
1102,814,773,951,750,176,17128,-2000,1928,-872,0,72
1105,821,773,962,731,175,17108,-1976,1796,-910,13,67
1108,814,774,958,747,176,17240,-1992,1876,-922,14,96
1111,817,774,957,742,174,17204,-1964,1912,-925,20,45
1114,819,773,957,744,178,17188,-2072,1860,-960,20,64
1117,816,774,962,746,181,17208,-2044,1844,-961,28,50
1120,819,778,962,741,178,17176,-1960,1912,-985,14,66
1123,816,775,959,739,178,17060,-1968,1700,-1007,11,35
1126,819,775,951,740,177,17080,-1972,1896,-1006,57,32
1129,832,782,953,749,182,17076,-2000,1848,-1014,23,25
1132,816,773,960,746,179,17024,-1888,1856,-1060,32,30
1135,817,774,957,742,177,17100,-1968,1760,-1049,39,10
1138,822,783,961,738,181,17064,-1996,1988,-1074,36,29
1141,823,771,963,743,177,17040,-1980,1856,-1089,37,5
1144,817,780,958,743,181,17132,-1892,1896,-1113,23,21
1147,820,779,962,742,182,16996,-1960,1956,-1120,56,8
1150,820,783,960,747,178,17036,-2020,1808,-1131,62,7
1153,819,781,960,741,181,17120,-2072,1856,-1142,68,20
1156,819,781,959,751,179,17080,-2016,1996,-1145,94,22
1159,818,780,956,752,183,17072,-2044,2008,-1166,105,21
1162,819,783,960,750,176,17156,-2028,1752,-1170,132,25
1165,828,779,959,752,177,17096,-2096,1936,-1169,133,13
1168,820,784,960,749,179,17072,-2068,2016,-1178,112,3
1171,819,782,960,752,180,17044,-2196,1988,-1196,100,16
1174,816,773,976,750,176,17036,-2172,1968,-1222,98,14
1177,816,775,960,749,180,16988,-2072,1980,-1222,72,6
1180,816,778,961,749,180,17024,-2164,1900,-1217,71,22
1183,817,771,960,747,176,17112,-2268,1948,-1218,51,18
1186,819,778,964,754,182,17060,-2232,1800,-1240,72,24
1189,821,759,960,749,178,17064,-2180,1940,-1207,44,22
1192,819,773,959,752,183,17136,-2216,1844,-1212,55,31
1195,816,779,963,752,178,17024,-2232,1936,-1210,48,56
1198,820,779,962,751,183,17064,-2240,1928,-1205,44,36
1201,816,774,951,751,182,16888,-2084,1788,-1176,27,61
1204,817,777,960,751,177,16972,-2200,1932,-1175,19,63
1207,818,781,959,751,176,16984,-2200,1876,-1139,22,53
1210,826,774,961,741,180,17060,-2124,1956,-1140,-4,63
1213,819,775,960,749,178,16948,-2232,1868,-1139,20,54
1216,818,767,961,743,177,17032,-2160,1984,-1104,-4,87
1219,820,769,960,739,177,17048,-2308,1772,-1079,24,91
1222,818,771,963,739,177,17172,-2232,1792,-1090,21,72
1225,816,771,960,736,181,17096,-2152,1916,-1088,23,78
1228,817,770,963,734,176,16984,-2132,1768,-1061,4,90
1231,817,769,962,735,175,17116,-2216,1912,-1061,15,89
1234,820,771,965,733,175,17180,-2164,2060,-1059,36,68
1237,817,773,960,736,176,17068,-2192,1832,-1041,4,75
1240,820,771,960,735,172,17032,-2144,1964,-1033,39,80
1243,821,774,960,734,176,17048,-2124,1744,-1043,48,76
1246,819,767,962,740,178,17044,-2152,1840,-1052,34,63
1249,822,775,963,743,176,17164,-2160,1864,-1055,45,69
1252,821,775,963,742,176,17144,-2188,1812,-1050,57,53
1255,820,773,961,741,176,17100,-2160,1752,-1069,59,59
1258,816,774,964,745,176,17052,-2188,1808,-1092,41,55
1261,817,779,961,739,176,17024,-2232,1832,-1102,50,46
1264,816,773,963,742,178,17092,-2240,1724,-1107,24,53
1267,819,781,962,745,178,17028,-2288,1860,-1123,29,45
1270,816,768,961,746,177,17084,-2296,1788,-1099,20,29
1273,815,773,960,743,177,17048,-2228,1740,-1117,11,18
1276,819,773,959,749,176,17124,-2260,1920,-1103,-1,8
1279,816,772,963,741,176,17140,-2232,1840,-1112,26,31
1282,818,778,959,737,176,17184,-2244,1728,-1106,36,17
1285,818,773,961,735,176,17092,-2296,1848,-1108,33,11
1288,816,778,959,742,176,17156,-2268,1824,-1108,27,40
1291,815,774,966,740,176,17148,-2204,1844,-1088,47,29
1294,817,774,960,738,176,17016,-2324,1864,-1065,56,19
1297,823,772,961,741,176,17048,-2284,1716,-1085,45,36
1300,821,773,964,739,177,17132,-2328,1748,-1054,65,20
1303,817,770,961,745,176,17080,-2304,1840,-1053,74,33
1306,819,772,978,745,177,17024,-2352,1836,-1055,87,69
1309,815,769,960,741,177,17020,-2296,1760,-1038,51,26
1312,816,771,963,743,175,16992,-2220,1860,-1024,57,26
1315,816,768,963,741,176,16996,-2228,1896,-1007,82,38
1318,816,767,962,740,179,17092,-2292,1864,-995,64,12
1321,818,767,966,743,177,17080,-2352,1824,-971,80,33
1324,819,774,966,746,176,17132,-2272,1864,-964,86,0
1327,816,769,963,752,176,17044,-2404,1964,-921,74,33
1330,820,775,960,746,177,17188,-2336,1752,-933,70,14
1333,821,771,965,749,177,17076,-2328,1680,-914,84,42
1336,817,771,960,745,176,17008,-2212,1864,-915,54,26
1339,819,773,966,750,178,17124,-2240,1956,-886,51,2
1342,818,772,965,745,179,16960,-2264,1996,-897,39,-14
1345,816,773,964,743,176,17156,-2304,1868,-898,35,4
1348,818,771,966,735,179,17036,-2316,1912,-876,39,-13
1351,819,777,967,738,176,17052,-2348,1800,-857,40,-16
1354,819,771,963,733,182,17048,-2316,1928,-846,62,-17
1357,819,773,959,732,175,17116,-2252,1992,-842,43,-23
1360,820,776,960,732,181,17060,-2268,1760,-819,40,-16
1363,817,779,969,726,176,17040,-2220,1832,-825,40,-8
1366,816,771,961,728,176,17156,-2348,1876,-808,32,-15
1369,817,770,961,731,173,17064,-2340,1912,-756,20,18
1372,817,770,960,731,176,17100,-2336,1792,-781,44,-12
1375,823,771,962,735,176,17024,-2356,1880,-750,56,-13
1378,817,768,982,735,176,17068,-2312,1908,-756,40,21
1381,817,772,960,736,175,17092,-2352,1952,-735,90,-7
1384,816,771,960,737,178,17080,-2308,1876,-722,80,10
1387,823,769,961,732,176,17088,-2268,1840,-706,86,-1
1390,817,768,965,740,175,17016,-2416,1744,-701,74,3
1393,816,768,985,742,176,17064,-2284,1848,-699,60,29
1396,818,767,963,743,178,17016,-2456,1848,-686,31,-17
1399,814,771,962,748,178,17156,-2456,1892,-671,63,14
1402,823,784,961,748,176,17104,-2260,1780,-667,53,4
1405,818,770,960,750,176,17036,-2324,1808,-658,50,8
1408,817,766,960,752,178,17176,-2188,1820,-663,53,0
1411,821,767,963,752,176,17148,-2352,1632,-685,60,-10
1414,816,768,963,746,176,17104,-2316,1684,-656,32,-18
1417,819,768,960,753,175,16984,-2244,1748,-652,8,-21
1420,824,773,966,752,176,17012,-2212,1700,-660,20,-51
1423,816,773,966,751,175,17100,-2236,1632,-619,13,-49
1426,818,775,963,749,176,17048,-2284,1804,-609,-9,-48
1429,819,768,963,753,174,17084,-2284,1780,-596,26,-71
1432,822,771,960,747,176,17016,-2216,1712,-577,28,-12
1435,816,767,965,748,174,17072,-2328,1832,-537,63,-41
1438,832,767,966,751,172,16992,-2220,1704,-561,76,-70
1441,822,773,963,749,170,17000,-2240,1948,-554,97,-63
1444,822,770,965,752,173,17020,-2212,1784,-536,84,-64
1447,817,771,966,752,172,17080,-2216,1852,-520,81,-58
1450,818,769,967,748,174,17068,-2204,1836,-517,92,-49
1453,816,771,967,745,173,17044,-2176,2020,-515,70,-46
1456,816,768,962,748,170,16948,-2216,1764,-493,67,-52
1459,816,765,963,745,171,17000,-2156,1980,-484,79,-62
1462,817,767,966,743,174,17048,-2136,1860,-495,45,-33
1465,816,770,963,741,173,17088,-2120,2008,-472,61,-20
1468,819,768,966,741,173,17100,-2184,1788,-494,72,-42
1471,817,770,965,739,172,17088,-2272,1728,-467,110,-31
1474,823,767,967,738,173,17220,-2112,1912,-464,97,-31
1477,817,768,967,738,174,17064,-2184,1936,-460,94,-32
1480,816,767,959,741,175,17168,-2256,1900,-469,103,-35
1483,816,767,960,742,174,17164,-2176,1912,-490,58,-41
1486,819,768,969,737,170,17140,-2248,1896,-491,112,-42
1489,817,767,959,741,169,17056,-2160,1980,-495,80,-48
1492,829,775,965,739,175,16996,-2224,1676,-524,61,-49
1495,816,766,964,739,171,17228,-2156,1964,-510,34,-64
1498,823,767,960,746,174,17120,-2196,1932,-538,34,-67
1501,820,772,962,738,173,17028,-2164,1976,-500,45,-56
1504,818,768,960,735,172,17144,-2188,1928,-533,62,-72
1507,816,767,961,737,170,17040,-2152,1904,-507,47,-82
1510,818,752,960,739,171,17060,-2188,1864,-537,40,-67
1513,817,768,960,736,167,17000,-2140,1776,-499,38,-61
1516,821,766,966,739,170,17044,-2188,1896,-496,43,-104
1519,816,766,963,740,169,17032,-2184,2044,-495,16,-52
1522,816,766,961,739,172,17012,-2108,1984,-503,76,-70
1525,817,767,960,747,173,17160,-2060,1904,-487,70,-53
1528,816,769,963,747,175,17104,-2072,1892,-520,86,-67
1531,817,763,960,747,166,17172,-2128,2028,-512,64,-79
1534,819,771,967,742,170,17116,-2140,2008,-491,84,-78
1537,816,765,960,742,167,17152,-2084,1924,-543,69,-92
1540,816,768,960,741,166,17164,-2164,1952,-530,93,-64
1543,819,769,961,743,175,17076,-2164,2032,-521,105,-73
1546,817,773,959,746,170,17116,-2136,1964,-560,122,-96
1549,816,774,966,756,166,17116,-2176,1916,-572,148,-83
1552,817,769,961,747,163,17064,-2080,1948,-609,150,-93
1555,821,773,962,746,167,17056,-2112,1868,-603,152,-111
1558,815,774,962,741,171,17036,-2132,1912,-618,159,-114
1561,812,774,962,742,169,17028,-2072,1852,-612,167,-115
1564,816,769,961,748,171,17084,-2160,1888,-637,139,-112
1567,811,773,966,743,168,17020,-2176,1980,-636,131,-106
1570,821,780,967,744,172,17060,-2152,1896,-649,113,-103
1573,819,773,961,748,171,17024,-2160,2064,-650,137,-100
1576,821,775,965,751,171,17164,-2164,2012,-672,124,-103
1579,816,773,962,743,171,17044,-2160,2052,-669,123,-94
1582,819,771,967,749,171,17044,-2160,1856,-674,131,-100
1585,816,777,964,753,171,17172,-2144,2032,-662,107,-52
1588,818,771,961,751,175,17076,-2172,1992,-658,89,-79
1591,820,774,963,751,171,16912,-2236,1956,-645,101,-75
1594,821,769,960,748,166,17112,-2168,1936,-663,109,-51
1597,820,777,963,749,169,17120,-2208,1940,-642,129,-53
1600,817,774,957,748,170,17036,-2140,1804,-666,150,-48
1603,822,777,963,743,171,17152,-2152,2036,-670,150,-76
1606,816,779,959,741,173,17172,-2172,1952,-698,170,-57
1609,817,778,962,738,170,17024,-2204,1956,-697,173,-92
1612,818,778,959,739,166,17040,-2172,2040,-703,145,-55
1615,817,774,963,734,169,17068,-2176,2052,-701,166,-48
1618,826,774,959,735,167,17176,-2184,1996,-748,148,-74
1621,822,779,963,735,170,17156,-2144,1996,-733,146,-70
1624,817,772,962,736,165,17020,-2208,1948,-718,128,-63
1627,818,774,959,741,165,17060,-2172,1952,-700,142,-81
1630,817,775,960,734,169,17088,-2112,1888,-708,155,-53
1633,816,786,962,736,165,17100,-2208,2036,-685,113,-61
1636,816,774,960,740,171,17060,-2164,2000,-675,126,-57
1639,819,778,959,738,167,17108,-2232,2028,-656,113,-61
1642,819,779,960,739,170,17132,-2172,2040,-680,97,-51
1645,818,770,960,739,168,17032,-2204,2008,-664,112,-56
1648,817,771,960,747,164,17056,-2120,2080,-657,118,-45
1651,816,779,959,747,162,17140,-2176,2108,-650,103,-60
1654,822,777,960,747,169,17096,-2148,2136,-683,119,-76
1657,821,771,958,743,173,17020,-2160,2120,-686,141,-72
1660,818,782,981,745,166,17120,-2132,1996,-697,135,-71
1663,818,774,955,749,169,17132,-2112,1932,-713,148,-65
1666,817,768,960,747,165,17048,-2120,2120,-712,111,-46
1669,819,778,963,761,167,17128,-2060,1972,-734,130,-46
1672,821,771,960,746,167,17136,-2060,1952,-742,111,-35
1675,819,775,961,752,171,17032,-2024,1992,-765,89,-27
1678,817,776,957,750,166,16976,-2072,2084,-798,100,-33
1681,816,774,961,743,171,17040,-1952,1904,-808,83,-13
1684,819,769,961,742,170,17036,-2188,2052,-820,83,-22
1687,825,770,961,735,165,17124,-1972,1940,-869,59,-25
1690,819,771,960,749,167,17084,-1972,1972,-867,76,7
1693,818,770,972,746,169,17212,-1972,1888,-910,87,-5
1696,825,770,962,743,165,17108,-1916,2116,-931,97,10
1699,818,775,962,741,174,17172,-1948,1872,-928,70,1
1702,819,773,962,737,173,17208,-1828,2060,-971,86,-23
1705,821,778,959,737,167,17148,-1912,1900,-1014,92,-2
1708,816,791,960,752,171,16952,-1896,2028,-1025,82,-9
1711,819,767,960,741,170,17064,-1836,2140,-1063,79,6
1714,816,775,964,741,171,17004,-1844,2064,-1079,104,-2
1717,821,771,960,743,171,17196,-1832,2012,-1134,147,3
1720,816,777,959,752,173,17124,-1880,2040,-1159,126,15
1723,816,776,960,735,170,17052,-1824,1940,-1221,150,2
1726,819,773,963,739,171,16964,-1904,1924,-1272,150,10
1729,817,779,965,750,171,17036,-1924,1972,-1293,140,11
1732,819,778,961,741,173,17088,-1988,1940,-1331,125,-13
1735,820,779,962,739,168,16956,-1956,1912,-1376,105,16
1738,818,778,960,751,171,17060,-1968,2044,-1414,99,-2
1741,819,779,964,742,170,17024,-2008,2012,-1476,75,1
1744,818,782,970,741,172,16868,-2060,1988,-1485,70,7
1747,816,783,963,747,174,16964,-2088,2072,-1523,71,22
1750,823,783,964,745,167,16860,-2068,1992,-1532,61,6
1753,819,777,960,738,173,17020,-2028,2108,-1545,45,21
1756,819,778,962,745,171,16984,-2068,1912,-1595,72,49
1759,821,783,963,745,172,16944,-2048,1936,-1599,71,45
1762,816,777,966,742,167,17024,-2052,2048,-1624,82,59
1765,817,775,967,746,171,17056,-1972,2076,-1654,89,62
1768,819,782,966,747,173,17008,-2136,2088,-1687,110,61
1771,821,781,969,748,171,17096,-2040,2220,-1684,138,114
1774,823,779,967,752,177,17032,-1968,2136,-1680,113,95
1777,816,778,959,749,171,16996,-2168,2128,-1713,134,121
1780,816,775,969,749,176,17104,-2000,2148,-1685,100,138
1783,816,775,970,747,176,17064,-2024,2032,-1717,131,146
1786,816,775,969,752,172,17064,-1996,2136,-1715,111,174
1789,818,773,963,752,172,17080,-2072,2316,-1699,116,152
1792,818,773,965,757,177,17152,-2028,2260,-1720,110,215
1795,817,772,962,752,172,17044,-2044,2176,-1733,78,191
1798,817,775,960,759,176,17164,-2024,2188,-1761,114,217
1801,820,780,963,752,173,17020,-2084,2164,-1762,102,200
1804,814,775,967,754,175,17196,-2096,2076,-1763,100,205
1807,817,770,963,755,173,17156,-2096,2068,-1768,124,179
1810,819,782,961,759,176,17172,-2092,2076,-1754,117,195
1813,818,775,960,753,176,17072,-2128,2132,-1760,96,187
1816,811,777,963,755,176,17200,-2148,2036,-1781,81,174
1819,818,778,962,752,176,17084,-2152,1900,-1790,100,180
1822,817,777,960,755,173,16952,-2180,2076,-1759,101,183
1825,818,775,966,753,176,17008,-2168,2128,-1785,84,151
1828,816,775,962,752,177,17168,-2276,2096,-1783,119,151
1831,819,782,966,753,173,17112,-2188,2136,-1794,112,151
1834,816,777,961,754,175,17104,-2156,1976,-1790,136,145
1837,816,775,964,752,174,17072,-2236,2084,-1801,101,122
1840,816,778,965,753,173,17152,-2228,2076,-1814,108,137
1843,819,775,964,756,174,17148,-2152,2188,-1816,98,117
1846,819,779,962,755,176,17092,-2188,2184,-1811,81,130
1849,818,781,963,759,179,17140,-2200,2212,-1828,84,99
1852,818,779,961,755,175,17124,-2184,2160,-1851,121,106
1855,815,777,963,752,176,17096,-2156,2084,-1842,92,104
1858,816,778,963,748,176,17112,-2272,2040,-1878,140,93
1861,822,779,962,742,176,17088,-2264,2084,-1862,119,99
1864,822,782,965,746,176,17100,-2276,2044,-1872,154,110
1867,817,784,966,748,175,17100,-2232,2188,-1862,150,88
1870,823,784,969,748,176,17004,-2296,2216,-1869,163,103
1873,818,782,972,741,178,16976,-2268,2144,-1862,162,81
1876,820,784,960,749,176,17016,-2380,2032,-1854,164,72
1879,819,784,967,747,176,17164,-2424,2260,-1818,164,75
1882,820,783,963,751,181,17028,-2444,2112,-1806,182,72
1885,819,784,961,742,178,17124,-2432,1984,-1780,163,68
1888,817,771,960,752,176,17096,-2356,2092,-1752,167,60
1891,819,778,962,755,177,17040,-2432,2108,-1722,155,77
1894,819,779,963,754,176,17016,-2368,2056,-1709,166,31
1897,822,776,963,763,180,16944,-2512,2012,-1686,152,51
1900,818,777,965,754,178,16992,-2396,2040,-1632,160,31
1903,818,769,969,755,176,17076,-2456,2132,-1620,155,16
1906,821,779,960,757,176,17116,-2404,2008,-1554,178,6
1909,821,778,961,763,182,17080,-2528,2112,-1531,159,11
1912,814,775,964,763,176,17084,-2488,1908,-1495,195,15
1915,825,777,960,763,179,17148,-2496,2060,-1448,177,28
1918,816,778,964,761,179,17096,-2508,1932,-1426,180,42
1921,821,780,965,755,177,17000,-2532,2012,-1402,158,32
1924,825,773,960,755,178,17088,-2536,2060,-1355,179,6
1927,821,778,961,752,178,17036,-2512,1968,-1327,162,0
1930,818,771,961,752,180,17064,-2604,1864,-1318,149,-4
1933,823,774,960,747,175,17036,-2512,1936,-1271,147,-12
1936,819,770,962,752,181,17024,-2572,1944,-1251,166,-2
1939,820,775,969,752,176,17048,-2548,2024,-1233,144,4
1942,817,770,966,752,176,17104,-2572,2080,-1206,140,-32
1945,817,781,967,752,179,17088,-2468,1856,-1186,148,-29
1948,817,768,967,753,177,17072,-2508,2032,-1159,153,-7
1951,817,767,966,755,179,17052,-2568,2008,-1165,142,-39
1954,817,771,965,752,177,17060,-2524,1948,-1173,134,-61
1957,819,766,966,759,181,17140,-2588,1912,-1141,116,-59
1960,818,770,969,757,181,17036,-2492,1928,-1146,126,-57
1963,822,770,971,752,177,17100,-2460,1964,-1138,111,-81
1966,826,768,967,751,176,17092,-2500,2072,-1126,82,-120
1969,823,773,967,751,176,17096,-2504,2180,-1148,103,-133
1972,820,772,966,750,178,17040,-2640,2156,-1134,131,-143
1975,822,775,966,752,176,17048,-2544,1972,-1121,93,-153
1978,822,773,966,752,176,16964,-2604,2016,-1104,121,-140
1981,817,770,967,747,176,17032,-2668,2060,-1085,86,-165
1984,819,776,961,747,176,16920,-2648,2112,-1058,97,-169
1987,817,773,961,752,178,16960,-2704,2072,-1022,92,-177
1990,819,771,965,748,178,16980,-2584,2032,-978,102,-170
1993,818,774,962,753,176,17068,-2700,2084,-893,93,-211
1996,819,773,989,751,176,16956,-2728,2092,-856,77,-198
1999,818,774,962,750,175,17048,-2780,2212,-814,81,-194
2002,817,771,963,743,176,17008,-2672,2064,-757,89,-187
2005,817,773,960,751,176,16996,-2760,2048,-694,76,-173
2008,816,771,961,751,177,16932,-2796,1920,-636,98,-167
2011,817,770,963,747,176,16948,-2872,2216,-580,89,-149
2014,816,768,961,744,177,16904,-2760,2184,-535,95,-122
2017,816,765,959,749,176,17036,-2768,2116,-473,63,-118
2020,810,771,963,746,176,16940,-2688,2084,-425,85,-80
2023,816,770,960,746,176,16852,-2712,1964,-376,41,-61
2026,817,765,962,747,176,16916,-2816,2072,-333,2,-40
2029,816,765,962,750,175,17032,-2700,2024,-277,9,-31
2032,816,766,963,741,176,17112,-2608,2016,-259,-22,-42
2035,817,766,960,747,176,17036,-2760,2188,-244,-10,10
2038,816,763,965,748,176,16940,-2716,2180,-229,17,7
2041,821,764,963,746,177,16976,-2628,2116,-194,-2,8
2044,816,755,961,749,173,16976,-2600,2016,-208,-3,17
2047,822,757,961,747,176,16852,-2596,1908,-216,-13,23
2050,817,763,966,747,173,16948,-2540,2036,-203,-64,-6
2053,816,758,962,751,176,16992,-2492,2136,-212,-50,15
2056,816,769,960,751,174,17064,-2548,2040,-231,-71,16
2059,817,763,962,751,175,17040,-2476,2076,-210,-87,27
2062,817,755,970,751,176,17092,-2528,2120,-219,-90,43
2065,818,761,970,751,172,17124,-2516,2016,-200,-89,32
2068,818,761,969,749,176,17012,-2408,1928,-210,-65,50
2071,815,758,971,751,176,17024,-2304,2076,-206,-85,56
2074,821,757,962,745,173,16988,-2292,2088,-217,-106,59
2077,822,753,963,742,175,16980,-2280,2136,-223,-99,42
2080,819,752,967,742,176,17048,-2248,2076,-226,-123,66
2083,817,753,967,739,176,17024,-2236,2068,-235,-124,64
2086,818,752,972,745,174,17084,-2208,1988,-240,-83,74
2089,819,752,969,742,176,17032,-2204,2124,-227,-75,66
2092,816,752,966,741,175,16944,-2164,2180,-253,-69,59
2095,818,758,973,748,174,17068,-2208,2124,-238,-68,80
2098,819,778,971,746,173,16900,-2176,2140,-247,-77,68
2101,816,757,971,742,175,16988,-2188,1864,-240,-76,98
2104,820,763,973,731,175,16948,-2084,2292,-290,-42,100
2107,816,778,963,742,177,16924,-2068,2160,-292,-65,76
2110,816,766,970,740,176,17000,-2100,2036,-326,-80,110
2113,816,763,971,738,176,16940,-2072,1972,-340,-100,76
2116,816,767,968,743,176,16836,-1916,2076,-357,-65,60
2119,816,755,973,745,176,16980,-2060,2076,-391,-100,87
2122,817,766,971,750,174,17044,-1972,2076,-382,-139,104
2125,816,763,974,750,176,17120,-2040,2160,-388,-80,83
2128,817,765,971,746,174,17068,-2012,2000,-419,-87,103
2131,818,762,970,747,169,17072,-1972,2008,-444,-150,98
2134,820,766,970,746,175,17116,-1996,2060,-499,-128,108
2137,817,765,960,752,176,17140,-1948,2120,-509,-90,141
2140,818,767,966,749,173,17096,-2020,2140,-550,-123,126
2143,816,768,967,752,171,17232,-1904,2048,-604,-87,113
2146,817,774,969,750,174,16980,-2004,2088,-646,-83,105
2149,819,761,973,750,175,17232,-1896,2120,-703,-68,120
2152,817,767,974,752,178,17092,-1972,2196,-724,-85,131
2155,819,763,969,752,174,17024,-1952,2184,-725,-106,143
2158,821,764,973,751,174,17072,-1956,2204,-787,-98,137
2161,816,766,975,748,173,16908,-2020,2240,-763,-173,163
2164,816,766,974,751,174,17084,-1952,2324,-779,-162,146
2167,819,762,973,749,175,17056,-2076,2172,-788,-165,191
2170,817,759,973,750,174,17180,-2004,2188,-810,-85,230
2173,816,754,964,750,172,17172,-2140,2100,-794,-96,244
2176,816,755,975,752,171,17192,-2060,1980,-851,-88,230
2179,818,758,966,746,173,17128,-2032,2240,-838,-54,233
2182,816,757,971,752,174,17108,-2056,2100,-857,-64,243
2185,815,757,973,754,178,17048,-2040,2284,-855,-62,254
2188,816,759,976,757,179,17212,-2032,2112,-911,-3,270
2191,816,762,973,758,176,17164,-1940,2212,-922,0,250
2194,816,765,974,755,180,17260,-1968,2112,-954,14,271
2197,817,759,972,756,181,17220,-1932,2176,-959,10,252
2200,814,767,973,752,181,17140,-1984,2228,-973,13,258
2203,816,761,973,752,179,17080,-1972,2192,-977,-19,279
2206,816,768,967,752,177,17044,-1936,2084,-983,-46,284
2209,817,767,965,751,177,17036,-1880,2160,-1003,-66,271
2212,817,767,959,752,176,17072,-1920,2196,-1022,-54,225
2215,816,769,964,752,179,17108,-1916,2120,-1033,-51,266
2218,817,768,967,749,183,17056,-1796,2108,-1069,0,249
2221,815,768,966,752,178,17228,-1836,2092,-1086,-13,254
2224,818,772,961,754,176,17024,-1844,2168,-1111,-9,222
2227,816,770,960,752,181,17256,-1732,2124,-1141,-2,241
2230,816,775,960,753,176,17192,-1652,2072,-1150,48,227
2233,816,777,962,752,177,17128,-1704,2216,-1211,-3,202
2236,816,773,962,751,177,17128,-1820,2116,-1229,-23,192
2239,816,774,965,750,176,17096,-1840,2164,-1265,-17,190
2242,813,774,959,751,176,17096,-1760,2164,-1310,25,142
2245,816,774,959,747,176,17064,-1756,2252,-1329,-12,153
2248,818,777,962,737,175,17176,-1724,1984,-1393,8,153
2251,816,778,961,741,176,17196,-1752,2264,-1450,24,149
2254,815,780,963,740,176,17196,-1844,2204,-1481,33,117
2257,817,769,960,739,176,17184,-1840,2128,-1524,57,139
2260,828,780,960,739,177,17184,-1864,2024,-1572,54,109
2263,817,783,959,745,179,17108,-1956,2024,-1577,82,107
2266,817,784,962,744,181,17228,-1956,2080,-1628,74,104
2269,820,786,961,743,181,17120,-2056,2020,-1648,96,104
2272,817,785,964,746,179,17068,-2068,2044,-1666,160,106
2275,817,783,961,748,176,17168,-2072,1960,-1670,143,110
2278,821,800,961,747,182,17236,-2136,2120,-1704,141,114
2281,820,783,955,743,177,17212,-2148,2032,-1703,159,90
2284,818,784,960,741,183,17136,-2192,2016,-1730,182,93
2287,823,784,960,742,177,17084,-2200,2120,-1740,178,64
2290,816,790,960,744,181,17160,-2252,2052,-1728,215,63
2293,818,785,960,744,180,17104,-2344,2064,-1734,194,22
2296,817,786,957,748,181,17180,-2380,2068,-1701,191,20
2299,822,786,963,747,179,17168,-2372,2020,-1686,193,0
2302,817,785,958,749,182,17112,-2428,2116,-1671,180,-37
2305,828,785,960,748,185,17012,-2404,2228,-1640,148,-59
2308,818,784,958,750,182,17020,-2440,2264,-1630,106,-82
2311,818,790,960,747,178,17088,-2508,2136,-1570,82,-98
2314,819,784,959,740,178,17084,-2424,2200,-1525,103,-93
2317,818,785,955,745,177,17192,-2400,2176,-1508,72,-131
2320,817,789,951,741,181,17248,-2476,2128,-1460,68,-158
2323,820,788,957,746,176,17092,-2496,2216,-1421,63,-157
2326,823,785,955,753,177,17168,-2576,2180,-1369,77,-163
2329,819,789,955,751,178,17108,-2616,2192,-1338,75,-160
2332,822,788,955,737,178,17060,-2596,2212,-1299,108,-166
2335,819,785,953,743,176,17028,-2528,2024,-1283,104,-197
2338,816,787,951,740,176,17032,-2588,2092,-1243,136,-193
2341,818,791,956,739,178,17052,-2600,2200,-1219,120,-197
2344,816,786,950,743,176,17000,-2640,2112,-1158,153,-193
2347,818,787,953,747,177,17020,-2584,2116,-1127,181,-197
2350,819,786,954,737,175,16924,-2720,2104,-1086,176,-218
2353,821,792,954,745,176,16960,-2696,2248,-1045,200,-234
2356,822,787,951,741,178,16952,-2712,2116,-1009,250,-204
2359,821,784,957,748,176,17040,-2640,2200,-972,234,-208
2362,816,787,958,752,176,16932,-2704,2140,-930,245,-214
2365,818,787,953,743,176,16868,-2632,2168,-923,250,-199
2368,817,790,955,747,176,16860,-2648,2064,-908,231,-211
2371,815,786,958,739,176,16872,-2604,2136,-854,242,-193
2374,816,784,947,747,175,16868,-2628,2116,-862,222,-198
2377,816,784,955,743,174,16896,-2636,2076,-814,180,-182
2380,819,784,954,746,175,17064,-2604,2136,-805,190,-179
2383,817,786,956,746,175,17000,-2636,2256,-777,172,-159
2386,818,785,959,749,176,17012,-2524,2076,-799,167,-181
2389,819,786,951,744,176,17048,-2656,2056,-752,148,-148
2392,816,783,955,747,172,17092,-2660,2048,-746,122,-148
2395,821,784,953,752,175,16968,-2556,2064,-748,94,-176
2398,822,784,953,755,173,17048,-2500,1960,-770,47,-158
2401,823,784,955,755,173,17132,-2544,2040,-784,69,-196
2404,822,784,955,752,175,16916,-2548,2080,-773,7,-180
2407,818,783,956,751,176,16944,-2512,1976,-746,12,-176
2410,819,784,954,750,174,16944,-2528,2080,-771,-8,-182
2413,817,785,959,748,174,16956,-2552,1960,-736,-57,-211
2416,821,783,955,750,172,17032,-2592,2112,-724,-52,-182
2419,820,781,958,752,172,16888,-2608,1932,-715,-75,-182
2422,819,782,957,753,173,16980,-2496,2148,-695,-29,-164
2425,823,780,962,750,175,16944,-2472,1952,-675,-23,-147
2428,821,780,960,749,171,16924,-2524,2160,-623,-31,-143
2431,819,777,959,746,174,16924,-2512,1948,-628,-46,-170
2434,816,777,961,751,176,16964,-2604,2096,-590,-28,-136
2437,822,778,959,752,173,17092,-2512,2164,-573,-44,-120
2440,815,781,962,752,175,17068,-2564,2172,-541,5,-88
2443,817,775,960,753,174,16932,-2484,2244,-540,-37,-93
2446,821,775,960,752,172,17004,-2576,2156,-528,-14,-67
2449,821,774,960,752,171,17040,-2524,2128,-482,-17,-25
2452,816,778,959,757,170,17112,-2436,2096,-468,-17,-55
2455,818,777,960,758,171,17000,-2560,2028,-475,-17,-9
2458,816,782,962,756,169,16972,-2556,2128,-455,-39,5
2461,816,779,960,759,167,17084,-2512,2216,-462,-24,14
2464,817,783,959,754,176,17028,-2380,2200,-473,-71,36
2467,817,774,962,754,175,17056,-2484,2112,-474,-68,38
2470,816,769,963,755,171,17112,-2404,2280,-480,-103,72
2473,819,775,959,760,170,17080,-2456,2152,-508,-116,94
2476,816,773,958,761,173,17112,-2452,2080,-517,-187,91
2479,818,771,959,756,175,17024,-2392,2028,-531,-197,107
2482,817,778,960,758,175,17112,-2372,2236,-560,-143,125
2485,817,774,960,761,176,17032,-2336,2092,-618,-176,119
2488,819,767,960,755,173,17040,-2344,2128,-631,-190,139
2491,817,770,955,755,177,16968,-2396,2152,-654,-183,134
2494,816,770,965,759,176,17072,-2272,2020,-676,-184,149
2497,816,771,962,755,175,16956,-2448,2220,-656,-198,172
2500,817,775,963,757,176,17072,-2332,2168,-675,-146,161
2503,818,775,963,751,176,17012,-2388,2044,-634,-138,182
2506,816,773,963,758,176,16916,-2248,2032,-658,-183,218
2509,817,770,961,759,177,16888,-2336,2380,-638,-187,206
2512,818,775,960,757,176,16964,-2288,2232,-654,-176,207
2515,816,769,958,755,176,17104,-2276,2144,-632,-166,232
2518,816,773,959,762,178,16984,-2260,2128,-626,-167,245
2521,816,771,961,761,174,16980,-2256,2180,-645,-128,232
2524,818,770,963,755,176,17004,-2112,2256,-643,-139,212
2527,816,771,962,754,176,16960,-2208,2092,-662,-162,237
2530,818,772,961,753,175,17020,-2344,2196,-659,-145,230
2533,814,772,962,752,175,16984,-2180,2256,-625,-152,224
2536,813,779,964,751,176,16988,-2192,2280,-617,-165,240
2539,816,773,965,753,174,17044,-2120,2184,-625,-195,227
2542,809,771,958,755,175,17156,-2164,2360,-624,-150,254
2545,822,772,963,753,176,17028,-2116,2216,-655,-149,238
2548,815,770,963,754,175,17164,-2136,1976,-655,-130,206
2551,816,773,966,755,176,17192,-2028,2108,-690,-100,199
2554,816,771,963,752,176,17084,-2044,2264,-700,-103,196
2557,817,775,958,752,177,17184,-2076,2028,-753,-117,140
2560,816,774,960,748,176,17148,-1932,2172,-822,-127,153
2563,820,777,961,752,177,17152,-2056,2112,-854,-138,138
2566,819,777,958,750,176,17120,-2012,2312,-905,-118,94
2569,816,779,961,747,176,17176,-2036,2296,-946,-138,73
2572,817,779,958,754,176,17092,-2064,2184,-966,-109,60
2575,816,778,961,752,179,17188,-2004,2184,-1021,-71,47
2578,817,773,960,751,177,17092,-2028,2132,-1028,-50,21
2581,811,778,960,752,179,17100,-2164,2220,-1039,-10,1
2584,829,777,961,755,177,17140,-2100,2304,-1054,19,-36
2587,819,783,957,757,182,17040,-2220,2260,-1073,-36,-17
2590,817,781,959,754,181,17000,-2272,2192,-1062,-58,-26
2593,819,781,955,752,177,17004,-2268,2196,-1072,-73,-40
2596,817,784,959,753,181,17088,-2260,2264,-1028,-71,-65
2599,820,782,955,755,177,17052,-2296,2268,-1012,-54,-78
2602,817,783,956,752,179,17060,-2376,2232,-998,-10,-80
2605,816,784,951,755,176,17120,-2432,2284,-928,18,-93
2608,818,784,950,752,182,17044,-2404,2152,-903,9,-119
2611,819,787,960,752,176,17084,-2436,2236,-854,35,-88
2614,821,784,959,752,177,17076,-2448,2320,-837,30,-106
2617,816,786,956,752,176,17192,-2416,2080,-818,29,-133
2620,826,788,953,752,176,17072,-2460,2164,-785,18,-156
2623,818,787,957,752,175,17112,-2488,2148,-756,2,-123
2626,822,793,951,751,176,17088,-2464,2260,-742,4,-139
2629,822,791,956,747,177,17072,-2460,2212,-730,-32,-144
2632,821,799,951,741,176,17060,-2320,2120,-706,-30,-147
2635,821,789,949,741,176,17100,-2392,2364,-702,-8,-192
2638,818,790,957,743,176,17200,-2328,2220,-719,-43,-194
2641,817,794,953,742,171,17192,-2360,2212,-701,-21,-230
2644,819,790,947,733,176,17276,-2352,2180,-718,-28,-220
2647,823,784,950,737,175,17144,-2284,2188,-683,-32,-250
2650,815,793,954,739,179,17168,-2308,2244,-674,-20,-248
2653,818,785,948,740,174,17204,-2296,2204,-689,2,-259
2656,819,785,949,737,176,17188,-2260,2148,-679,-3,-257
2659,816,789,946,742,176,17176,-2224,2224,-690,34,-256
2662,817,788,949,743,176,17128,-2204,2200,-703,23,-268
2665,819,782,945,748,177,17192,-2284,2236,-687,60,-257
2668,821,788,949,751,181,17056,-2196,2240,-691,54,-278
2671,816,788,950,751,182,17096,-2492,2232,-691,42,-269
2674,821,793,951,752,177,17064,-2452,2332,-698,69,-275
2677,818,793,954,749,179,17028,-2268,2252,-688,106,-296
2680,820,787,956,752,176,17100,-2392,2256,-685,105,-311
2683,821,791,949,752,176,16904,-2340,2068,-687,118,-295
2686,819,794,948,752,176,16944,-2384,2188,-673,133,-306
2689,818,795,947,759,176,17060,-2440,2096,-671,127,-310
2692,817,799,949,762,176,16984,-2400,2236,-665,138,-331
2695,818,795,950,762,178,16952,-2456,2060,-672,98,-331
2698,821,800,951,759,178,16896,-2464,2148,-700,106,-317
2701,823,802,945,758,176,16968,-2376,2052,-667,70,-320
2704,825,802,947,755,178,17000,-2392,2116,-678,82,-330
2707,821,801,947,752,176,17000,-2408,2068,-666,71,-317
2710,818,804,946,752,179,17000,-2412,2124,-699,82,-328
2713,822,802,954,752,176,17052,-2372,2076,-690,58,-334
2716,820,803,946,752,176,17004,-2400,2060,-706,43,-326
2719,819,801,949,748,176,17032,-2412,2040,-683,44,-318
2722,818,797,946,749,175,16988,-2388,2084,-718,12,-292
2725,820,802,947,751,176,16964,-2472,2164,-702,16,-321
2728,820,797,947,751,176,16996,-2528,2164,-710,35,-287
2731,819,799,946,750,176,17116,-2472,2028,-726,4,-313
2734,844,802,950,752,179,17036,-2664,2144,-722,17,-283
2737,821,799,949,749,177,17036,-2504,2124,-704,7,-288
2740,820,794,946,747,179,17024,-2500,2240,-696,5,-254
2743,822,791,946,747,176,17044,-2588,2140,-693,2,-266
2746,820,794,950,752,176,17040,-2608,2092,-699,-7,-233
2749,818,795,950,746,176,16948,-2544,2204,-669,13,-228
2752,822,796,951,752,178,17024,-2648,2124,-648,-10,-224
2755,821,790,949,757,179,17072,-2656,2120,-640,-40,-220
2758,819,811,945,753,176,16980,-2624,2200,-630,-90,-210
2761,815,787,951,752,178,17044,-2708,2224,-623,-43,-225
2764,818,784,950,752,172,17032,-2708,2192,-594,-41,-179
2767,819,784,951,746,175,17020,-2672,2248,-579,-26,-168
2770,817,784,951,752,175,17120,-2728,2020,-557,-73,-183
2773,821,784,951,752,172,16932,-2700,2004,-539,-60,-193
2776,819,784,954,752,174,16924,-2640,2184,-553,-74,-204
2779,822,784,951,756,173,16984,-2644,2108,-528,-82,-188
2782,822,780,955,752,170,16844,-2672,2092,-523,-81,-182
2785,816,781,955,753,166,17028,-2712,2084,-511,-68,-196
2788,817,782,955,756,173,16952,-2648,2096,-504,-58,-207
2791,823,779,977,752,176,17008,-2624,1928,-481,-86,-187
2794,819,783,960,751,176,16836,-2576,1824,-473,-58,-178
2797,820,783,954,751,175,16948,-2556,1896,-485,-41,-178
2800,819,782,959,752,171,16904,-2544,1888,-435,-66,-180
2803,817,781,955,751,169,17000,-2368,2100,-459,-43,-174
2806,819,784,958,751,171,16960,-2508,2100,-436,-30,-158
2809,819,780,957,751,170,16956,-2456,2060,-442,-49,-178
2812,820,784,960,749,171,16876,-2224,2072,-465,-73,-157
2815,816,777,954,734,172,16888,-2424,2044,-486,-66,-143
2818,818,782,960,747,169,17048,-2304,2092,-532,-49,-131
2821,816,781,959,749,169,16952,-2340,2000,-548,-41,-143
2824,821,781,960,749,166,16956,-2376,2260,-562,-29,-87
2827,819,783,959,749,166,16920,-2328,2048,-611,-53,-99
2830,821,777,961,747,164,17016,-2308,1976,-645,-35,-98
2833,819,780,958,745,165,17104,-2332,2016,-675,-103,-62
2836,819,777,959,753,167,16920,-2392,2000,-698,-99,-73
2839,817,773,956,749,172,17016,-2332,2040,-713,-76,-71
2842,816,773,960,750,171,17032,-2344,2068,-756,-101,-52
2845,817,774,960,751,170,17020,-2360,2076,-768,-90,-35
2848,835,779,961,750,166,17092,-2420,2124,-824,-103,-21
2851,810,779,963,747,170,16976,-2476,2032,-829,-119,-35
2854,818,776,960,752,171,17024,-2372,2152,-829,-101,-10
2857,818,778,957,752,167,16988,-2408,2024,-831,-91,-16
2860,817,773,965,752,173,16992,-2488,2016,-868,-96,-4
2863,817,771,961,752,169,17068,-2432,2092,-874,-104,32
2866,816,772,963,751,170,17100,-2440,2156,-898,-97,15
2869,812,771,965,757,173,17028,-2468,2160,-891,-87,20
2872,818,769,967,741,171,17076,-2392,2048,-886,-95,20
2875,816,766,976,753,176,17092,-2420,2192,-890,-108,22
2878,817,764,972,754,171,17036,-2528,2156,-898,-116,51
2881,816,767,966,753,174,17064,-2508,2108,-899,-107,29
2884,817,770,965,753,172,16992,-2472,2128,-908,-110,36
2887,816,767,962,765,176,17036,-2364,2024,-884,-112,36
2890,816,767,969,758,176,17068,-2460,2092,-863,-139,46
2893,817,771,965,762,175,17124,-2444,2176,-883,-105,42
2896,816,768,976,762,171,17128,-2392,2032,-880,-124,23
2899,816,769,965,762,173,17020,-2468,2084,-864,-101,6
2902,814,769,965,761,173,17100,-2376,2148,-877,-90,24
2905,816,769,963,763,175,17048,-2396,2208,-829,-80,-1
2908,819,767,965,767,176,17028,-2372,1944,-841,-93,-23
2911,816,768,961,767,174,17104,-2436,2020,-806,-82,-8
2914,818,773,962,763,175,17044,-2328,1992,-802,-73,-16
2917,816,772,961,768,173,17020,-2328,2016,-795,-72,-9
2920,817,773,960,762,172,17000,-2356,2152,-801,-69,-43
2923,819,772,960,759,173,17064,-2340,2256,-776,-83,-53
2926,816,775,962,759,166,17132,-2300,2096,-773,-54,-33
2929,817,780,965,762,167,17148,-2260,2060,-766,-63,-68
2932,818,777,961,759,168,17060,-2244,2100,-793,-62,-47
2935,817,775,959,753,171,16984,-2312,2084,-785,-38,-71
2938,816,779,962,752,172,17052,-2256,2136,-765,-75,-67
2941,816,779,953,752,163,17140,-2216,2164,-749,-50,-70
2944,819,779,983,753,170,17108,-2272,2132,-782,-71,-87
2947,816,781,961,753,170,17092,-2244,2152,-776,-46,-73
2950,822,779,960,751,163,17168,-2376,2248,-796,-74,-82
2953,819,781,959,752,166,17080,-2296,2200,-779,-52,-87
2956,819,779,959,752,164,17172,-2384,2048,-783,-80,-90
2959,822,781,960,749,170,17052,-2328,2128,-784,-63,-82
2962,821,781,957,752,166,17052,-2312,2104,-772,-70,-113
2965,818,780,959,750,165,16976,-2296,2012,-742,-67,-88
2968,817,775,960,751,165,17044,-2260,2100,-768,-68,-103
2971,818,780,961,747,167,17084,-2292,2032,-737,-55,-68
2974,816,778,963,751,166,17028,-2300,1944,-726,-76,-88
2977,817,778,958,750,166,16984,-2268,2176,-734,-76,-60
2980,819,779,962,751,165,17172,-2292,2008,-733,-54,-64
2983,818,771,960,752,170,17084,-2228,1976,-735,-79,-78
2986,821,777,958,752,167,17104,-2356,2052,-746,-86,-64
2989,821,772,959,752,170,17064,-2192,2028,-749,-74,-61
2992,817,772,963,750,170,17036,-2264,1948,-772,-113,-71
2995,821,772,963,752,163,17072,-2208,2008,-773,-75,-54
2998,817,768,965,750,166,17152,-2296,1976,-772,-79,-69
3001,819,768,965,751,165,16984,-2240,2044,-774,-103,-69
3004,816,767,967,750,166,17004,-2192,2092,-773,-91,-44
3007,816,765,966,748,163,16956,-2256,1960,-806,-102,-88
3010,816,765,966,752,167,17008,-2304,2032,-810,-95,-53
3013,818,767,967,752,166,17160,-2268,1948,-811,-105,-45
3016,816,768,966,759,164,17220,-2256,1940,-813,-108,-48
3019,816,767,968,752,162,17096,-2356,1956,-816,-129,-56
3022,820,770,965,754,166,17108,-2140,2060,-783,-108,-44
3025,816,769,963,753,162,17044,-2148,2016,-808,-122,-54
3028,818,766,976,755,164,17036,-2276,2068,-790,-98,-68
3031,818,767,961,751,163,17060,-2316,2172,-812,-118,-59
3034,818,769,960,752,164,17048,-2256,2032,-809,-149,-61
3037,816,774,961,751,163,17132,-2200,1920,-795,-120,-85
3040,816,768,965,752,167,16992,-2204,2196,-785,-114,-65
3043,816,778,970,750,163,17112,-2336,2156,-810,-118,-78
3046,820,772,969,750,165,17012,-2240,2148,-792,-122,-84
3049,821,774,969,752,166,17168,-2228,2108,-779,-114,-75
3052,816,771,962,752,168,17140,-2180,2240,-761,-77,-60
3055,818,769,963,739,165,17028,-2300,2140,-774,-139,-68
3058,818,777,962,752,167,17252,-2260,2100,-761,-112,-40
3061,816,770,959,750,166,17092,-2196,2108,-750,-116,-37
3064,816,775,959,748,165,17200,-2260,2112,-778,-79,-31
3067,815,773,959,746,170,17136,-2268,2176,-758,-86,-40
3070,819,773,960,747,164,17052,-2292,2116,-775,-99,-26
3073,818,774,958,741,167,17088,-2248,2168,-766,-87,-27
3076,817,769,959,741,163,17160,-2252,2064,-793,-99,-33
3079,817,774,962,747,162,17040,-2200,2156,-782,-74,-56
3082,818,775,962,744,164,16928,-2196,1936,-785,-60,-26
3085,820,773,962,743,165,16980,-2252,2128,-791,-35,-35
3088,819,768,960,740,165,17076,-2264,2164,-797,-51,-29
3091,816,771,961,746,164,17008,-2148,1976,-792,-51,-21
3094,816,775,960,742,169,17120,-2168,2160,-791,-17,-22
3097,815,774,960,750,166,17160,-2168,1948,-804,-18,-24
3100,818,780,954,747,165,17096,-2148,2108,-829,-50,-18
3103,822,778,959,747,163,17116,-2112,2032,-837,-29,-25
3106,816,778,962,751,163,17120,-2040,2120,-855,-40,-21
3109,819,781,961,743,161,17200,-2088,2088,-865,-56,-19
3112,817,778,960,747,162,17168,-2092,1964,-871,-28,-25
3115,816,763,960,749,165,17072,-2080,1960,-903,-49,0
3118,817,774,959,752,164,17060,-2032,2100,-918,-50,-39
3121,818,781,961,752,165,17000,-2048,2016,-923,-62,-33
3124,821,780,961,753,166,17056,-2048,2028,-943,-58,-54
3127,819,775,959,752,169,17080,-2056,2068,-955,-47,-52
3130,819,779,963,755,173,17096,-2068,2032,-993,-81,-31
3133,819,777,962,752,166,17140,-2072,2000,-977,-45,-38
3136,829,776,960,752,167,17072,-2056,2072,-1016,-65,-49
3139,823,775,962,754,165,17080,-2160,1900,-994,-40,-42
3142,819,779,981,752,165,17112,-2104,2012,-1009,-50,-51
3145,819,777,960,764,160,17096,-2148,2004,-1019,-63,-53
3148,819,772,962,752,164,17028,-2316,1916,-1026,-47,-71
3151,816,771,983,752,162,17060,-2212,1980,-1007,-37,-53
3154,816,771,961,749,167,16936,-2180,2028,-1010,-33,-66
3157,816,769,962,746,163,16956,-2188,2156,-1028,-29,-58
3160,816,771,959,751,167,17056,-2184,2100,-1020,-2,-59
3163,813,771,961,751,165,17028,-2264,1924,-1004,-20,-59
3166,816,771,962,752,163,17088,-2212,2080,-1009,-9,-70
3169,818,773,960,749,164,17104,-2196,2020,-1003,-21,-57
3172,816,771,964,752,171,17016,-2220,1956,-1000,19,-68
3175,816,772,962,752,162,17016,-2260,2104,-989,-26,-55
3178,816,770,965,751,164,16996,-2116,1940,-984,-8,-31
3181,819,779,965,752,161,17064,-2188,2060,-977,-28,-55
3184,816,773,963,752,163,17000,-2184,2080,-980,-32,-39
3187,829,773,965,751,165,17064,-2188,2060,-965,-26,-50
3190,819,773,962,749,167,17000,-2212,1996,-971,-40,-43
3193,819,774,963,752,162,17020,-2292,2112,-972,-32,-27
3196,818,770,961,750,166,17188,-2216,2132,-945,-8,-26
3199,815,772,963,751,168,17088,-2184,2064,-961,-22,-73
3202,816,770,965,749,166,17208,-2120,2032,-968,-45,-58
3205,817,770,960,751,164,17176,-2088,2108,-990,-47,-57
3208,821,776,961,750,171,17192,-2140,2092,-983,-12,-44
3211,816,771,958,741,166,17016,-2152,2176,-1009,-44,-91
3214,819,777,963,751,169,17060,-2216,2236,-1001,-49,-46
3217,822,769,957,752,165,17064,-2252,2252,-1039,-88,-86
3220,819,778,962,749,165,17008,-2196,2216,-1052,-62,-53
3223,816,771,962,752,166,17108,-2300,2152,-1060,-76,-81
3226,806,775,963,749,165,17128,-2184,2168,-1071,-94,-83
3229,819,776,965,752,163,17044,-2280,2188,-1115,-81,-65
3232,811,779,961,752,163,17048,-2128,2084,-1093,-74,-83
3235,816,778,965,748,163,17072,-2228,2224,-1118,-88,-67
3238,817,779,963,747,161,17052,-2272,2156,-1082,-71,-66
3241,821,777,962,745,167,16996,-2196,2144,-1099,-40,-50
3244,821,778,964,752,167,16976,-2196,2236,-1099,-64,-66
3247,819,774,962,741,169,16964,-2280,2116,-1081,-39,-75
3250,817,773,960,748,163,16980,-2272,2272,-1092,-25,-52
3253,816,773,963,747,166,16944,-2268,2224,-1082,-17,-44
3256,819,775,963,742,162,17020,-2408,2012,-1079,-23,-54
3259,816,779,963,752,166,16952,-2252,2008,-1084,-24,-57
3262,816,777,965,752,160,16912,-2308,2152,-1096,-4,-33
3265,816,775,959,752,160,16992,-2248,2132,-1055,1,-27
3268,816,778,953,752,161,17036,-2424,2096,-1080,-11,-38
3271,816,775,959,751,162,17080,-2260,2136,-1073,9,-8
3274,816,778,960,752,161,17068,-2404,2168,-1042,-18,-30
3277,817,779,951,752,165,17032,-2220,2028,-1067,-19,-48
3280,816,779,958,752,159,17036,-2368,2060,-1065,-6,-16
3283,816,778,959,756,166,17004,-2280,2000,-1047,-35,-7
3286,816,775,957,752,164,16984,-2400,2100,-1075,-43,-24
3289,816,775,960,749,169,17120,-2288,1932,-1084,-45,-22
3292,816,777,960,751,164,17036,-2320,2120,-1057,-62,-46
3295,816,783,960,752,166,17224,-2408,1956,-1082,-28,-23
3298,820,775,961,752,165,17040,-2408,2076,-1070,-52,-46
3301,817,775,958,752,167,17040,-2184,2064,-1060,-45,-42
3304,819,783,951,752,163,17032,-2404,2080,-1063,-45,-6
3307,819,778,954,751,167,17136,-2288,1964,-1054,-11,-10
3310,816,775,959,752,163,17188,-2248,2084,-1050,-34,-42
3313,818,778,960,752,160,17052,-2192,1964,-1050,-12,-30
3316,810,779,961,751,166,17092,-2180,2196,-1058,-20,-47
3319,818,775,959,751,168,17144,-2260,2012,-1064,-39,-37
3322,821,779,977,749,163,17096,-2216,1932,-1085,-39,-54
3325,826,775,960,750,165,17184,-2196,2180,-1094,-37,-65
3328,818,779,962,751,165,17140,-2228,2028,-1096,-29,-61
3331,819,781,961,752,163,17060,-2152,2084,-1114,-49,-63
3334,835,781,962,752,161,17116,-2220,2216,-1114,5,-91
3337,816,775,960,751,164,17108,-2284,2024,-1132,-39,-87
3340,832,779,961,751,165,17024,-2240,2116,-1111,-28,-94
3343,822,779,960,750,161,16924,-2284,2220,-1129,-21,-95
3346,819,780,962,751,163,17076,-2216,2124,-1107,-6,-92
3349,817,775,960,749,165,16976,-2332,2176,-1112,7,-101
3352,818,784,960,751,162,16984,-2296,2164,-1090,2,-89
3355,827,779,960,746,165,17012,-2268,2080,-1094,14,-111
3358,816,781,958,742,160,17092,-2292,2040,-1094,8,-91
3361,817,784,961,748,165,16960,-2292,2256,-1072,17,-103
3364,818,801,957,743,166,17104,-2308,2188,-1082,-14,-84
3367,816,783,960,743,167,17032,-2332,2188,-1060,19,-82
3370,822,784,954,751,167,17100,-2344,2096,-1067,-1,-98
3373,829,781,959,745,167,17040,-2396,2132,-1043,14,-106
3376,817,787,960,749,162,17092,-2420,2080,-1006,-4,-86
3379,819,784,959,743,165,17048,-2404,2100,-1005,22,-117
3382,822,778,959,741,167,17084,-2400,2020,-997,-10,-102
3385,818,782,959,741,167,17064,-2352,2024,-994,2,-86
3388,816,781,955,736,167,17112,-2404,1940,-962,-15,-110
3391,816,780,967,742,169,16964,-2360,2092,-973,-13,-96
3394,816,782,967,736,168,17072,-2360,2016,-954,-5,-94
3397,817,781,959,738,164,17140,-2296,2124,-966,-41,-112
3400,816,779,954,739,170,17124,-2332,2100,-952,-21,-109
3403,818,778,958,739,166,17112,-2352,2136,-970,-36,-103
3406,819,782,957,738,164,17036,-2328,2036,-961,-24,-99
3409,834,777,960,742,171,17152,-2376,2076,-969,-52,-77
3412,816,774,976,741,166,17152,-2368,2080,-954,-53,-105
3415,822,773,957,740,168,16964,-2404,2044,-952,-52,-113
3418,816,775,962,747,174,17028,-2240,2044,-988,-70,-104
3421,820,775,958,742,175,17052,-2268,1976,-969,-64,-127
3424,819,777,959,747,175,16996,-2288,1936,-966,-42,-109
3427,823,780,958,746,173,17028,-2340,2124,-986,-41,-118
3430,818,779,960,752,172,17084,-2172,2104,-983,-56,-138
3433,838,778,961,755,176,17044,-2304,2168,-1011,-34,-139
3436,822,775,959,752,175,17000,-2188,2168,-987,-44,-125
3439,816,781,959,751,172,17128,-2248,2032,-996,-30,-136
3442,810,782,960,752,167,17152,-2152,2132,-1010,-31,-118
3445,821,784,960,752,173,17112,-2260,2076,-1019,-16,-140
3448,821,781,957,753,176,17104,-2324,2060,-1018,-23,-150
3451,816,781,960,750,171,17072,-2296,2052,-1014,-27,-143
3454,835,769,957,773,169,17132,-2316,2032,-1028,-15,-147
3457,816,784,959,749,173,17112,-2172,1940,-1018,7,-139
3460,816,783,958,748,171,16948,-2284,2120,-1028,-12,-151
3463,822,780,960,748,174,17076,-2132,1948,-1018,-3,-147
3466,819,794,960,743,166,17000,-2232,1992,-1030,25,-155
3469,816,779,959,746,171,17016,-2272,2084,-1025,-12,-157
3472,819,781,955,745,170,17148,-2240,2004,-1048,11,-180
3475,817,784,960,750,171,16992,-2340,2076,-1047,-3,-157
3478,820,783,960,751,176,17036,-2360,2000,-1066,15,-156
3481,821,784,961,752,171,17124,-2296,2136,-1050,-17,-171
3484,822,784,956,750,171,17148,-2280,2052,-1055,6,-136
3487,816,782,958,749,173,17028,-2276,1948,-1085,-8,-148
3490,817,784,961,752,174,17052,-2336,2112,-1078,19,-145
3493,819,778,961,749,175,17044,-2316,2144,-1081,-24,-130
3496,818,783,959,750,170,17188,-2244,2208,-1087,-13,-162
3499,816,778,958,750,173,17084,-2408,1992,-1105,-24,-126
3502,822,777,961,752,171,17020,-2240,1900,-1104,-34,-125
3505,818,767,958,752,175,17084,-2228,2108,-1096,-12,-141
3508,816,784,971,759,171,16952,-2348,2060,-1083,-9,-135
3511,815,780,954,753,173,16980,-2356,2040,-1098,-1,-140
3514,820,782,958,755,174,17048,-2364,2068,-1094,-11,-147
3517,820,778,959,752,169,17092,-2404,2068,-1064,-5,-169
3520,819,781,960,756,163,17076,-2384,2144,-1076,-5,-162
3523,822,784,956,757,174,17092,-2320,1980,-1048,35,-182
3526,817,783,957,752,173,17116,-2372,2104,-1026,25,-162
3529,822,784,955,757,172,16964,-2412,2136,-1011,44,-168
3532,821,784,960,756,174,17156,-2384,2144,-1017,22,-161
3535,816,784,966,753,173,17080,-2440,2104,-982,68,-177
3538,819,801,958,752,173,17088,-2436,2100,-980,9,-157
3541,816,786,956,755,176,17092,-2384,2136,-955,39,-179
3544,819,785,955,752,174,16996,-2368,2088,-934,25,-164
3547,818,784,960,752,175,17048,-2436,1928,-954,30,-185
3550,817,784,960,756,171,16920,-2348,1980,-896,32,-169
3553,816,782,955,751,176,17068,-2384,2188,-904,32,-160
3556,817,784,959,747,176,16936,-2396,2036,-881,22,-149
3559,816,780,959,750,176,17044,-2492,1956,-908,12,-172
3562,818,780,961,745,177,17044,-2404,2028,-889,8,-143
3565,819,782,962,752,176,17060,-2404,2016,-890,9,-134
3568,822,779,955,746,176,17088,-2320,1976,-907,17,-140
3571,818,784,958,741,178,16984,-2372,2052,-919,-2,-150
3574,819,781,958,749,176,16976,-2360,1928,-931,-8,-129
3577,819,779,954,748,176,17176,-2388,1956,-937,-25,-152
3580,823,783,954,743,175,17032,-2328,2020,-908,-29,-109
3583,820,783,960,751,170,16988,-2424,1956,-943,-35,-144
3586,816,782,960,750,176,16968,-2380,2140,-933,-36,-140
3589,817,779,955,752,176,17060,-2352,2012,-936,-18,-149
3592,806,777,961,748,176,17072,-2396,2060,-936,-50,-132
3595,821,782,961,749,176,17060,-2328,2092,-947,-37,-164
3598,818,778,960,749,173,17104,-2268,2156,-938,-18,-146
3601,819,775,957,746,175,17064,-2400,2104,-923,-20,-142
3604,821,777,955,748,175,17040,-2296,2136,-929,-27,-160
3607,819,777,963,743,175,17064,-2284,2024,-923,-16,-145
3610,819,779,962,743,174,16948,-2276,2116,-907,2,-155
3613,816,780,960,743,176,16932,-2332,1872,-885,-24,-142
3616,818,781,963,741,174,17060,-2352,2080,-881,10,-167
3619,828,773,954,746,173,17032,-2272,2112,-873,-3,-148
3622,817,779,962,743,172,16968,-2328,1988,-858,-42,-155
3625,816,775,961,741,170,16992,-2304,2116,-847,-33,-149
3628,818,774,959,746,175,17116,-2284,2072,-840,-24,-148
3631,816,774,961,745,174,17020,-2336,2080,-816,-2,-143
3634,818,768,960,749,173,17020,-2384,2152,-851,-28,-137
3637,818,771,959,753,174,17080,-2256,2184,-822,-32,-127
3640,817,779,960,756,173,17004,-2404,2104,-822,-38,-107
3643,818,774,961,752,173,17072,-2384,1992,-803,-18,-123
3646,816,780,961,752,171,17012,-2296,2036,-804,-56,-135
3649,823,775,962,752,175,17048,-2312,2176,-801,-41,-118
3652,822,779,961,752,170,17028,-2388,2052,-826,-63,-109
3655,818,770,959,751,176,17072,-2380,1952,-842,-72,-107
3658,819,773,959,751,167,17052,-2360,1944,-817,-60,-110
3661,816,784,960,750,171,17020,-2360,1956,-847,-69,-80
3664,819,779,957,753,170,17108,-2256,1868,-862,-59,-82
3667,817,775,949,754,174,17116,-2308,2040,-862,-88,-72
3670,819,779,956,754,173,17136,-2280,1940,-888,-77,-76
3673,821,779,963,758,175,17052,-2292,1960,-905,-80,-74
3676,817,781,959,752,173,17112,-2328,1864,-921,-100,-72
3679,823,793,957,752,170,17072,-2356,2020,-899,-71,-62
3682,822,781,960,752,171,17100,-2204,2044,-899,-58,-63
3685,820,783,962,752,171,17140,-2304,2164,-922,-25,-64
3688,816,777,960,754,171,16988,-2268,2100,-913,-50,-72
3691,831,783,959,751,172,16952,-2272,2136,-942,-29,-86
3694,817,781,955,751,169,17000,-2260,2052,-937,-29,-81
3697,816,776,963,751,171,16976,-2204,2084,-923,-25,-55
3700,816,778,960,752,175,17092,-2284,2160,-938,14,-84
3703,818,783,959,753,170,17092,-2224,2040,-903,-25,-66
3706,819,779,961,754,171,16984,-2224,2128,-914,-16,-66
3709,817,779,960,752,167,16980,-2276,2176,-921,-4,-74
3712,819,781,961,751,174,17092,-2240,2112,-884,12,-69
3715,819,769,966,749,167,17048,-2192,2124,-921,-19,-62
3718,816,775,960,750,166,16948,-2116,2108,-887,-13,-79
3721,817,772,964,743,167,17096,-2256,2108,-879,-16,-59
3724,818,777,960,751,169,17004,-2180,1976,-882,7,-81
3727,817,779,965,745,165,16984,-2264,2132,-867,7,-84
3730,811,773,960,746,169,17124,-2236,2056,-837,-1,-87
3733,832,778,963,742,170,16980,-2284,2212,-828,-8,-100
3736,817,773,969,747,161,16944,-2188,2068,-835,-31,-80
3739,817,779,960,749,171,17132,-2256,2128,-840,-11,-100
3742,816,773,973,746,170,17188,-2252,1960,-832,-16,-85
3745,821,781,960,751,170,17056,-2276,1936,-846,-20,-109
3748,816,777,960,750,163,17036,-2192,2056,-857,-22,-100
3751,816,776,961,752,167,17100,-2120,2068,-838,-43,-120
3754,816,779,959,753,169,17044,-2192,2272,-881,-73,-97
3757,816,778,954,752,167,17168,-2096,2004,-843,-53,-106
3760,817,783,961,751,166,17020,-2240,2092,-871,-71,-106
3763,820,779,960,752,165,17092,-2220,1944,-852,-77,-113
3766,819,782,955,745,170,17096,-2204,1944,-879,-82,-124
3769,817,781,959,748,171,17056,-2228,2060,-865,-83,-128
3772,817,778,959,747,169,16964,-2160,2104,-878,-95,-133
3775,818,778,959,746,168,17088,-2316,1976,-839,-104,-139
3778,816,781,960,737,166,17008,-2208,2088,-839,-70,-131
3781,821,783,960,741,169,17048,-2264,2040,-846,-88,-138
3784,821,779,957,741,167,17056,-2200,2028,-830,-75,-146
3787,818,781,961,740,166,17028,-2248,2144,-828,-52,-136
3790,816,781,962,740,169,17036,-2152,2200,-832,-60,-120
3793,816,784,961,742,170,17100,-2192,2060,-815,-51,-133
3796,817,775,963,743,170,17084,-2300,2292,-838,-52,-108
3799,818,779,960,739,167,17156,-2120,2144,-817,-28,-109
3802,821,777,969,738,169,17016,-2304,2184,-818,-47,-114
3805,818,775,959,739,173,16992,-2216,2128,-820,-43,-128
3808,822,781,967,740,170,16984,-2264,2008,-808,-26,-123
3811,817,782,963,742,168,17044,-2240,2076,-792,-45,-129
3814,816,775,959,745,171,17100,-2180,2044,-810,-31,-136
3817,821,781,963,747,173,17084,-2320,2108,-803,-34,-123
3820,814,790,960,746,167,17032,-2292,2012,-812,-46,-136
3823,817,777,962,742,170,17084,-2236,2100,-826,-59,-111
3826,816,774,959,752,171,17020,-2240,2060,-813,-73,-118
3829,818,778,960,742,173,17072,-2240,2124,-828,-52,-121
3832,816,775,964,750,174,17080,-2200,2084,-834,-74,-129
3835,820,784,960,747,170,17124,-2224,2160,-828,-55,-145
3838,816,779,961,749,176,17116,-2140,2144,-834,-104,-134
3841,818,774,959,746,163,17068,-2248,2108,-840,-58,-137
3844,819,778,954,749,175,17140,-2324,2124,-827,-84,-123
3847,820,781,960,751,173,17100,-2216,2172,-831,-75,-118
3850,818,778,958,755,170,17112,-2184,2084,-846,-96,-119
3853,816,784,959,755,174,17140,-2192,2160,-860,-70,-143
3856,819,775,957,757,173,17144,-2160,2200,-889,-93,-130
3859,816,774,955,754,173,17144,-2168,2100,-883,-106,-157
3862,819,779,958,753,170,17076,-2112,2076,-920,-72,-155
3865,822,779,954,751,167,17008,-2188,2128,-904,-122,-172
3868,819,779,957,763,167,17100,-2148,2148,-923,-106,-159
3871,818,768,960,756,171,17060,-2224,2188,-949,-93,-154
3874,817,781,963,755,169,17040,-2124,2168,-956,-60,-155
3877,817,777,960,757,172,16952,-2140,2036,-969,-85,-166
3880,816,779,962,758,170,17000,-2192,2228,-958,-60,-160
3883,818,781,957,762,176,16976,-2140,2084,-991,-44,-156
3886,818,783,958,761,169,16980,-2172,2180,-974,-35,-138
3889,818,782,957,757,169,17000,-2180,2128,-1005,-24,-117
3892,821,781,957,755,174,17188,-2256,1988,-997,-9,-131
3895,818,779,957,754,174,17092,-2208,2088,-1004,-2,-126
3898,818,779,960,753,170,17184,-2292,2212,-1008,16,-122
3901,817,783,961,753,173,17092,-2160,2120,-1022,1,-132
3904,816,780,951,756,170,17040,-2220,2024,-990,10,-111
3907,818,774,960,752,175,16996,-2220,2068,-1034,17,-121
3910,822,779,958,752,173,16952,-2236,2184,-1028,-28,-120
3913,822,779,955,752,175,17060,-2124,2144,-1043,-14,-117
3916,819,781,960,754,171,17072,-2268,2156,-1019,-41,-110
3919,816,783,958,757,171,17072,-2264,2204,-1018,-39,-109
3922,819,783,954,752,169,16984,-2260,2124,-1040,-39,-121
3925,816,782,959,755,170,17084,-2264,2032,-1050,-73,-106
3928,816,784,955,757,171,17060,-2188,2128,-1052,-66,-118
3931,816,777,960,754,167,17040,-2132,2052,-1076,-106,-119
3934,817,779,961,762,167,16960,-2208,2256,-1075,-105,-119
3937,816,778,960,759,171,17004,-2244,1976,-1091,-90,-149
3940,819,777,951,761,170,17076,-2152,2120,-1113,-96,-132
3943,818,779,961,756,166,17084,-2216,2096,-1138,-109,-103
3946,816,783,959,764,171,16996,-2232,2160,-1122,-68,-129
3949,816,777,961,755,171,17012,-2276,2128,-1118,-57,-125
3952,824,775,960,752,175,17068,-2232,2032,-1109,-73,-113
3955,816,779,963,752,171,16876,-2172,2100,-1088,-69,-103
3958,816,774,963,752,174,16948,-2284,2144,-1088,-72,-96
3961,817,782,963,753,176,17148,-2232,2048,-1057,-39,-102
3964,819,780,959,752,170,17036,-2268,1940,-1064,-49,-82
3967,834,779,965,756,170,16968,-2224,2204,-1051,-64,-106
3970,819,780,960,752,171,17100,-2256,2032,-1032,-62,-91
3973,817,768,960,754,173,17068,-2208,2228,-1044,-68,-74
3976,815,777,960,750,167,17120,-2212,2076,-1024,-77,-79
3979,818,781,961,750,172,17040,-2340,2172,-1033,-36,-91
3982,818,780,964,751,170,17096,-2264,2144,-1020,-68,-61
3985,820,778,962,751,174,16992,-2304,2100,-1013,-71,-74
3988,816,774,957,750,170,17020,-2240,2132,-1008,-93,-77
3991,817,777,960,751,169,16964,-2212,2300,-1007,-96,-84
3994,818,774,963,747,170,17096,-2288,2220,-1013,-119,-74
3997,818,773,962,752,175,17060,-2284,2080,-1019,-107,-84
4000,818,781,962,749,173,17068,-2336,2116,-1021,-113,-86
4003,817,778,961,751,173,17124,-2344,2000,-1013,-128,-93
4006,816,779,959,743,172,16916,-2256,2180,-1003,-117,-67
4009,822,765,965,748,172,16948,-2260,2008,-1023,-154,-58
4012,812,773,959,747,169,16972,-2296,2196,-1015,-105,-55
4015,819,775,957,737,169,17036,-2260,2116,-1015,-129,-63
4018,816,771,959,752,173,17084,-2312,2112,-1020,-140,-78
4021,817,771,958,744,169,17084,-2200,2168,-1001,-138,-35
4024,817,771,961,742,176,17040,-2112,2172,-999,-131,-49
4027,817,771,957,737,175,17008,-2132,2216,-1000,-127,-69
4030,821,775,960,747,172,16996,-2168,2204,-1012,-148,-32
4033,818,775,961,746,171,17024,-2232,2192,-969,-123,-47
4036,816,774,960,743,175,16956,-2148,2128,-977,-118,-50
4039,816,774,965,749,171,17016,-2164,2152,-974,-124,-37
4042,819,775,960,746,173,17012,-2196,2212,-978,-97,-39
4045,823,776,962,749,175,17136,-2148,2132,-946,-97,-31
4048,818,769,959,752,176,17176,-2108,1980,-973,-76,-40
4051,817,774,959,752,176,17044,-2124,2140,-970,-111,-15
4054,817,771,963,751,174,17172,-2136,2188,-971,-125,-35
4057,809,778,962,750,176,17020,-2164,2076,-977,-126,-54
4060,816,777,955,752,176,17204,-2092,2056,-976,-111,-63
4063,815,777,961,749,176,17112,-2016,2160,-994,-119,-39
4066,819,775,959,752,174,17080,-2092,1948,-983,-113,-71
4069,816,781,951,751,174,17024,-2116,1940,-983,-123,-77
4072,819,776,962,752,175,17068,-2092,2132,-1009,-141,-104
4075,820,778,956,752,175,17076,-2072,1924,-1007,-87,-99
4078,817,781,962,752,176,17064,-2168,1988,-997,-135,-127
4081,816,779,962,752,170,16968,-2020,2044,-1026,-88,-109
4084,816,781,960,752,175,17000,-2152,1964,-1021,-95,-133
4087,816,775,961,754,175,17040,-2180,2028,-1007,-101,-115
4090,810,779,957,756,170,17032,-2128,1936,-1043,-115,-113
4093,816,781,960,758,175,17008,-2164,2012,-1025,-81,-113
4096,812,778,959,758,171,17028,-2112,2040,-1021,-111,-118
4099,816,778,959,757,175,17076,-2120,1972,-1044,-94,-97
4102,817,781,961,755,173,16960,-2108,2052,-1014,-92,-112
4105,820,779,960,754,173,17032,-2168,2060,-1030,-96,-104
4108,819,779,963,752,170,17000,-2164,2028,-1012,-80,-100
4111,817,778,963,759,169,17004,-2160,2076,-1007,-92,-90
4114,816,775,963,754,170,16948,-2192,2080,-1001,-74,-67
4117,817,777,960,755,173,17108,-2156,2000,-994,-64,-92
4120,817,775,962,752,170,17044,-2068,2156,-975,-41,-73
4123,817,775,960,752,175,17056,-2132,1916,-961,-48,-78
4126,818,777,961,752,170,17024,-2116,2068,-976,-42,-45
4129,816,779,954,758,174,17060,-2144,1888,-979,-42,-63
4132,837,774,957,753,174,17040,-2156,1912,-985,-15,-53
4135,816,784,960,755,171,17024,-2176,2000,-975,-52,-60
4138,816,778,958,752,171,17300,-2140,1996,-986,-46,-64
4141,816,775,960,754,175,17068,-2152,1904,-980,-65,-36
4144,816,775,960,756,174,17100,-2072,1880,-997,-84,-45
4147,820,779,960,753,173,17104,-2144,1960,-992,-104,-58
4150,816,784,960,759,172,17068,-2192,1880,-1004,-125,-51
4153,816,775,960,757,172,17164,-2136,1876,-1018,-132,-84
4156,816,775,960,755,175,17052,-2172,2040,-1008,-114,-52
4159,816,779,959,757,173,17076,-2256,1812,-999,-125,-88
4162,818,778,956,758,171,17036,-2236,1956,-1020,-143,-99
4165,816,774,960,759,177,17016,-2216,1960,-1000,-143,-105
4168,817,779,960,761,171,17036,-2144,1948,-994,-142,-100
4171,817,769,971,755,173,17024,-2192,1824,-999,-125,-81
4174,816,780,959,753,173,17072,-2064,1956,-995,-145,-105
4177,816,783,961,755,167,17040,-2184,1984,-994,-118,-92
4180,817,779,962,752,176,17080,-2168,1904,-998,-139,-111
4183,826,777,960,767,171,16976,-2088,2016,-969,-113,-72
4186,816,774,960,754,171,17036,-2172,2016,-960,-116,-89
4189,816,773,965,752,170,17068,-2140,2064,-963,-120,-104
4192,817,773,961,754,168,17056,-2136,2144,-962,-78,-79
4195,818,770,962,752,173,17012,-2156,2084,-937,-85,-70
4198,821,774,961,752,171,17052,-2192,2228,-933,-81,-78
4201,816,771,965,765,169,17076,-2212,2040,-927,-86,-55
4204,816,773,962,755,165,17164,-2208,1816,-917,-76,-66
4207,817,771,958,755,171,16996,-2232,2096,-904,-69,-43
4210,816,772,959,759,171,17148,-2204,2052,-901,-88,-33
4213,815,774,961,754,165,17108,-2236,2012,-902,-71,-56
4216,815,775,957,755,168,17072,-2180,2024,-898,-97,-26
4219,815,773,958,754,167,17116,-2176,1968,-931,-115,-34
4222,816,758,960,757,164,17096,-2260,1944,-907,-129,-40
4225,818,773,960,753,167,17052,-2108,1904,-919,-112,-17
4228,816,771,958,752,164,17004,-2188,2016,-925,-152,-16
4231,817,773,959,753,172,17124,-2168,1888,-952,-125,-36
4234,816,777,958,753,166,17068,-2236,1876,-937,-144,-41
4237,822,778,960,757,170,17132,-2140,1996,-933,-145,-38
4240,817,774,955,752,161,17136,-2112,1872,-947,-120,-19
4243,817,775,960,753,167,17000,-1996,1996,-955,-113,-30
4246,819,781,958,757,165,17068,-2048,1896,-952,-109,-20
4249,816,773,963,754,167,17124,-2024,1976,-953,-94,-47
4252,817,775,960,753,170,16940,-2076,1956,-944,-109,-32
4255,816,773,959,752,167,17160,-2084,1840,-953,-90,-44
4258,816,775,963,752,165,17084,-1956,2128,-953,-86,-37
4261,816,777,958,752,171,16972,-2048,2056,-949,-64,-36
4264,819,774,959,747,175,17004,-2064,2140,-947,-74,-35
4267,810,768,961,754,171,17036,-2000,1788,-945,-62,-28
4270,816,775,960,750,174,17096,-2080,2064,-953,-64,-24
4273,819,781,965,750,167,17080,-2008,1972,-939,-63,-32
4276,817,778,960,747,171,16976,-2104,2004,-953,-61,-24
4279,818,777,964,747,174,17140,-2084,1904,-947,-46,-19
4282,818,778,960,746,176,17080,-2096,1976,-963,-48,-13
4285,820,777,963,752,171,17352,-2092,1924,-982,-49,-28
4288,818,775,960,746,173,17236,-2144,1892,-954,-69,-14
4291,816,778,961,747,169,17212,-2136,1864,-988,-68,-29
4294,818,775,960,745,175,17040,-2164,1984,-1006,-103,-23
4297,817,777,960,752,171,17156,-2084,1968,-1017,-105,-41
4300,816,773,958,748,170,17072,-2120,1820,-1036,-117,-68
4303,816,775,959,746,171,16972,-2092,2000,-1047,-122,-57
4306,817,770,961,746,169,16992,-2164,2168,-1048,-137,-60
4309,816,793,963,750,170,17056,-2124,1916,-1035,-126,-64
4312,822,775,965,745,167,17156,-2160,2088,-1058,-152,-65
4315,815,777,959,743,169,17088,-2220,2064,-1023,-123,-88
4318,818,782,959,741,175,17108,-2204,2016,-1028,-139,-55
4321,817,778,960,740,170,17112,-2120,1988,-1020,-135,-75
4324,814,777,970,742,167,17076,-2092,2000,-1017,-112,-81
4327,816,778,960,746,169,17132,-2216,2056,-1010,-123,-79
4330,821,773,963,746,169,17036,-2164,2064,-987,-89,-64
4333,816,783,966,746,169,17084,-2268,2060,-955,-80,-68
4336,816,775,961,750,172,17060,-2224,2024,-996,-84,-49
4339,816,775,960,745,171,17128,-2176,2196,-963,-71,-40
4342,816,777,960,747,172,16952,-2168,2172,-960,-19,-33
4345,818,774,960,739,171,17112,-2200,2020,-950,-65,-26
4348,819,774,961,745,169,17044,-2288,2060,-944,-52,-5
4351,820,775,962,745,167,17012,-2256,2128,-931,-28,-10
4354,817,784,955,745,171,17088,-2184,2044,-924,-42,-14
4357,819,777,960,746,169,17096,-2184,2088,-940,-59,-15
4360,818,777,955,749,169,17080,-2148,1900,-889,-45,-28
4363,816,777,959,749,169,16980,-2164,1864,-904,-57,-30
4366,818,775,960,746,167,17216,-2192,2036,-911,-77,-28
4369,816,774,963,746,166,17068,-2128,1928,-904,-59,-34
4372,817,775,957,747,169,17124,-2248,1936,-913,-85,-37
4375,819,777,960,745,170,17020,-2120,1980,-897,-70,-43
4378,819,775,966,750,163,17052,-2112,2016,-924,-77,-56
4381,816,777,958,749,167,17096,-2172,1904,-923,-86,-25
4384,816,784,960,751,165,17064,-2116,1964,-914,-96,-27
4387,816,779,953,742,170,17164,-2216,1912,-887,-71,-24
4390,816,773,956,746,165,16996,-2232,1788,-919,-94,-41
4393,816,773,957,750,165,17052,-2152,1964,-895,-89,-34
4396,816,772,961,751,171,17128,-2216,2040,-890,-81,-40
4399,816,779,958,763,167,17076,-2236,1932,-886,-126,-19
4402,813,779,959,749,169,17092,-2292,1912,-879,-77,-31
4405,816,780,950,751,173,17128,-2172,1924,-868,-96,-23
4408,817,778,959,743,165,17164,-2164,1996,-882,-92,-25
4411,816,779,960,742,167,17016,-2156,2004,-887,-75,-8
4414,818,774,960,742,173,17012,-2124,2012,-868,-98,-6
4417,816,771,962,735,166,16940,-2196,2076,-877,-95,-10
4420,816,773,961,735,166,17088,-2164,1912,-847,-87,-16
4423,817,773,961,733,171,17156,-2080,2212,-861,-109,3
4426,816,771,957,735,170,17144,-2152,2036,-876,-92,-20
4429,817,778,963,735,170,17028,-2164,2104,-865,-84,-13
4432,817,773,960,740,173,17164,-2140,2044,-864,-80,-18
4435,816,777,964,737,166,17084,-2176,1932,-869,-73,-21
4438,816,774,961,740,167,17060,-2240,2016,-861,-71,-3
4441,814,773,962,743,175,17112,-2196,1964,-877,-43,10
4444,818,771,960,747,167,17000,-2164,2024,-886,-63,0
4447,815,774,957,745,169,17028,-2172,1896,-880,-77,-8
4450,816,771,959,743,169,17028,-2124,1984,-904,-54,-15
4453,816,772,960,750,173,17060,-2160,1888,-878,-102,-23
4456,817,775,963,742,171,17112,-2220,1872,-889,-90,-32
4459,816,777,961,737,171,17028,-2188,2008,-888,-100,-3
4462,822,777,960,739,176,17068,-2232,1940,-892,-96,-22
4465,819,777,961,742,177,17068,-2128,1964,-882,-107,-21
4468,818,777,961,741,173,17092,-2068,1904,-885,-66,8
4471,816,770,963,743,176,17040,-2152,1956,-897,-99,-27
4474,816,778,957,745,176,17044,-2104,1900,-877,-76,-4
4477,815,781,961,741,175,17160,-2168,2016,-875,-67,-12
4480,819,781,958,745,175,17004,-2140,1984,-878,-88,-19
4483,816,778,960,743,172,17100,-2188,1876,-862,-66,-5
4486,817,775,961,742,171,17100,-2096,2068,-855,-60,0
4489,816,778,957,749,174,17096,-2048,2004,-845,-47,-9
4492,817,778,960,768,176,17080,-2080,2024,-847,-47,1
4495,821,782,954,750,170,17032,-2048,1964,-850,-47,2
4498,821,775,956,747,174,17096,-2176,1904,-847,-24,-8
4501,805,775,959,740,173,17084,-2008,1840,-850,-30,-11
4504,823,781,958,747,171,17196,-2256,2052,-871,3,-19
4507,821,779,961,746,174,17120,-2180,1856,-869,-24,-13
4510,816,779,955,741,174,17052,-2176,1880,-888,-61,-38
4513,816,775,958,749,174,17136,-2144,2016,-878,-51,-37
4516,816,782,960,740,173,17168,-2180,1972,-879,-67,-23
4519,816,775,957,739,176,17060,-2060,1932,-907,-80,-38
4522,818,782,960,742,175,17056,-2136,1912,-904,-61,-26
4525,816,777,955,741,176,17248,-2152,1896,-895,-66,-34
4528,816,778,959,739,175,17132,-2164,1828,-930,-77,-37
4531,817,780,960,737,175,17144,-2152,1828,-922,-53,-30
4534,817,777,949,741,171,17208,-2128,1972,-947,-63,-14
4537,818,775,960,743,176,17116,-2196,1956,-962,-68,-41
4540,817,775,957,741,172,17092,-2208,1904,-972,-71,-45
4543,816,779,960,742,172,17052,-2100,2008,-995,-45,-19
4546,817,778,960,743,173,16992,-2200,2064,-1004,-74,-36
4549,819,778,959,741,171,17160,-2192,2044,-956,-60,-38
4552,816,775,959,746,173,17072,-2228,1944,-1022,-24,-31
4555,816,777,959,740,169,17012,-2140,1840,-984,-64,-21
4558,816,774,982,743,171,17020,-2172,2004,-1001,-29,-33
4561,816,779,961,746,171,17040,-2120,2068,-978,-26,-21
4564,817,775,958,747,173,17092,-2200,1992,-984,-10,-31
4567,819,781,959,746,173,17024,-2148,1840,-965,-31,-37
4570,816,773,957,750,171,17048,-2216,1920,-971,-29,-24
4573,809,776,962,752,173,16968,-2144,1896,-956,-22,-61
4576,816,782,960,750,169,16948,-2272,2012,-942,-14,-39
4579,818,775,957,750,176,17096,-2260,1872,-954,-27,-64
4582,818,781,959,749,167,17004,-2256,1756,-933,-2,-25
4585,817,778,959,752,167,17036,-2204,2004,-962,-24,-45
4588,819,781,960,752,172,17132,-2216,1940,-936,-10,-41
4591,816,777,959,752,167,17040,-2296,2008,-922,-14,-37
4594,816,771,960,752,170,17252,-2148,1872,-915,-23,-28
4597,816,781,956,756,166,16984,-2252,1964,-912,-19,-34
4600,816,771,962,757,169,16972,-2248,2044,-930,-19,-35
4603,818,782,963,754,167,17240,-2308,1992,-915,-21,-34
4606,819,773,959,753,165,17104,-2376,1928,-913,-18,-28
4609,816,777,963,752,163,17172,-2280,2080,-939,-35,-19
4612,816,774,960,752,166,17044,-2196,1896,-938,-35,-2
4615,816,779,960,752,166,17116,-2248,2020,-946,-66,-24
4618,816,783,960,752,163,16936,-2212,1896,-971,-29,-13
4621,816,786,958,752,163,16892,-2164,1892,-949,-74,-4
4624,818,772,960,752,169,17060,-2284,1920,-984,-57,-6
4627,817,777,960,749,169,17124,-2248,1928,-990,-47,7
4630,818,778,963,747,165,17096,-2268,2032,-985,-37,5
4633,819,773,959,753,164,17048,-2208,1876,-986,-26,8
4636,819,778,960,750,172,17012,-2216,1904,-998,-31,24
4639,816,770,959,751,171,17092,-2344,1776,-1012,-15,40
4642,816,773,957,753,170,17084,-2236,1912,-1008,-43,29
4645,816,769,960,748,168,17020,-2204,1848,-1016,-22,73
4648,818,769,959,747,172,17020,-2180,1960,-990,-23,52
4651,816,769,958,752,168,17064,-2292,1908,-1025,-35,43
4654,816,773,962,750,175,17128,-2192,2000,-993,-18,63
4657,815,770,961,731,169,17128,-2156,2044,-995,-32,41
4660,818,770,960,745,175,17060,-2208,1960,-967,-42,64
4663,818,768,967,752,174,17028,-2248,2016,-952,-38,53
4666,815,767,962,745,175,17040,-2296,1944,-994,-45,36
4669,816,768,954,754,175,17040,-2280,2072,-986,-43,72
4672,816,768,962,749,176,17048,-2244,1888,-997,-57,51
4675,816,766,958,746,173,17088,-2268,1888,-969,-32,56
4678,816,767,965,744,176,17052,-2232,2080,-990,-65,36
4681,816,766,961,742,174,17164,-2212,1984,-1000,-27,35
4684,807,770,965,750,176,17060,-2256,2036,-991,-35,53
4687,816,766,962,751,176,17120,-2228,1996,-986,-57,23
4690,823,764,963,751,176,17044,-2248,2164,-1002,-66,29
4693,816,770,964,747,176,17084,-2284,1860,-999,-40,13
4696,815,767,960,751,176,17044,-2320,2076,-990,-15,21
4699,819,769,965,747,177,17048,-2252,2048,-991,-33,32
4702,820,768,966,749,176,17136,-2116,2068,-1004,-45,26
4705,816,782,965,749,176,17112,-2316,1932,-1010,-19,4
4708,820,769,957,751,179,17080,-2272,1956,-1005,-38,15
4711,816,774,965,752,176,17168,-2280,1928,-1022,-54,-18
4714,818,775,965,751,176,17160,-2224,1928,-1035,-44,17
4717,816,771,962,751,181,17084,-2292,1868,-1013,-12,-35
4720,817,773,960,748,175,16988,-2332,1952,-1020,-16,-23
4723,816,782,960,746,175,17092,-2276,1996,-1015,-11,-29
4726,816,777,961,752,175,16968,-2376,2040,-1028,-10,-46
4729,819,779,964,747,175,16964,-2320,1940,-1012,1,-28
4732,829,773,961,742,176,17056,-2300,1976,-1009,0,-44
4735,819,770,959,750,174,16992,-2292,1924,-965,11,-44
4738,815,777,960,749,176,17056,-2212,2036,-990,11,-36
4741,816,771,961,750,176,17120,-2156,2040,-983,14,-34
4744,820,774,961,746,176,16940,-2264,2044,-956,43,-13
4747,815,770,962,747,176,16964,-2300,2084,-981,32,-5
4750,816,773,957,732,175,17092,-2240,2140,-949,17,1
4753,817,777,961,746,176,17116,-2224,1896,-964,11,1
4756,816,773,960,750,177,17184,-2196,1928,-956,30,11
4759,815,777,961,745,176,17096,-2280,1876,-979,60,3
4762,809,771,954,751,176,17068,-2232,1980,-965,58,14
4765,818,778,959,752,178,17180,-2292,1976,-977,78,25
4768,816,779,962,752,176,17080,-2300,2040,-969,48,28
4771,820,782,966,751,181,17104,-2172,1984,-970,36,40
4774,816,775,960,739,176,17044,-2300,1912,-962,37,8
4777,819,773,954,748,177,16992,-2196,1928,-991,26,14
4780,817,779,959,746,178,17076,-2200,1872,-978,20,-8
4783,821,777,959,742,178,17016,-2256,1948,-987,9,15
4786,819,779,960,746,178,17004,-2316,1716,-990,12,-22
4789,819,774,960,746,180,17128,-2272,1928,-987,-26,25
4792,820,777,961,743,177,17092,-2196,1920,-976,-17,-33
4795,819,781,960,750,180,17128,-2244,1964,-963,-31,-21
4798,814,772,960,743,176,17076,-2220,1812,-968,-16,-7
4801,816,777,960,752,175,17112,-2156,1928,-979,-31,4
4804,816,775,959,748,173,17164,-2276,1828,-983,-24,-34
4807,816,773,956,747,178,17068,-2320,2000,-977,-26,-25
4810,816,774,958,743,176,17020,-2284,1912,-983,-29,-54
4813,817,779,960,741,176,16984,-2308,1896,-974,-25,-48
4816,821,773,959,749,175,16984,-2244,1968,-981,-46,-33
4819,819,775,960,739,175,16964,-2268,2028,-961,-40,-34
4822,811,772,963,737,176,17012,-2316,2004,-959,-48,-18
4825,818,775,961,741,176,16932,-2404,1872,-955,-11,-32
4828,819,779,960,741,176,16964,-2280,1852,-938,-38,-19
4831,819,777,965,738,176,17072,-2364,1780,-925,-15,-31
4834,818,773,963,743,172,17060,-2332,1948,-913,-22,17
4837,818,773,959,743,176,17080,-2312,1920,-885,-18,0
4840,816,773,959,743,175,17096,-2396,1924,-887,-20,22
4843,819,774,963,745,176,16988,-2440,2056,-888,-23,-12
4846,819,770,958,746,176,17076,-2308,1984,-896,-15,13
4849,816,771,954,751,176,17020,-2304,1852,-876,-37,-14
4852,816,774,962,766,178,17128,-2340,2172,-888,-22,14
4855,821,771,961,752,179,17148,-2348,1784,-872,-38,-7
4858,816,771,963,752,177,17192,-2336,1812,-889,-2,6
4861,818,771,960,751,178,17172,-2292,1988,-879,-32,15
4864,816,771,960,752,177,17168,-2332,2008,-905,-21,15
4867,818,775,960,752,177,17064,-2276,1940,-884,-17,-6
4870,816,773,959,752,178,17140,-2216,1908,-907,-20,-13
4873,815,778,957,752,176,17060,-2296,1872,-890,-38,-28
4876,822,774,960,752,177,17092,-2264,1880,-879,-35,-19
4879,816,778,958,749,176,17076,-2308,2016,-890,-56,-45
4882,820,781,951,749,178,17092,-2276,2048,-898,-30,-42
4885,816,784,959,751,176,17032,-2240,1920,-887,-19,-36
4888,819,795,958,750,176,17120,-2324,1992,-878,-38,-63
4891,816,780,956,749,177,17052,-2220,1984,-865,-13,-29
4894,817,783,962,752,173,17104,-2260,1892,-864,-8,-43
4897,817,777,954,750,177,17080,-2188,1980,-861,-3,-40
4900,819,782,959,749,172,17128,-2184,2076,-858,-4,-24
4903,808,781,958,747,173,17080,-2308,2032,-860,13,-18
4906,816,771,957,746,175,17064,-2172,1984,-876,15,-11
4909,818,779,961,741,174,17056,-2276,1972,-862,25,-14
4912,818,778,960,739,176,17024,-2224,2000,-879,19,-37
4915,816,781,961,739,176,17144,-2248,1884,-913,42,-34
4918,817,781,957,741,174,16964,-2192,1996,-903,24,-49
4921,819,777,957,744,170,16968,-2308,1928,-921,30,-38
4924,818,780,956,747,169,17008,-2276,1756,-915,15,-46
4927,816,784,958,743,174,16900,-2244,1772,-952,12,-63
4930,817,779,960,747,173,17064,-2216,1984,-936,4,-73
4933,817,782,960,745,173,17084,-2308,1968,-941,-19,-63
4936,822,784,957,745,173,17012,-2292,1792,-977,-24,-64
4939,816,784,960,741,175,16996,-2268,1876,-934,-45,-93
4942,821,785,963,743,174,17036,-2328,1840,-985,-36,-64
4945,818,783,958,747,177,16992,-2232,1876,-958,-18,-81
4948,835,783,958,747,173,17104,-2244,2000,-987,-28,-84
4951,818,783,961,738,175,17068,-2292,1964,-967,-48,-78
4954,822,778,955,747,176,17028,-2228,2032,-985,-17,-81
4957,815,781,961,755,176,17028,-2236,2024,-967,-26,-64
4960,816,778,960,747,173,17128,-2208,1828,-988,-49,-56
4963,819,779,960,740,170,17088,-2276,1972,-979,-15,-63
4966,816,778,953,743,171,17132,-2248,1912,-983,-46,-59
4969,816,778,956,746,176,17008,-2272,1912,-955,-41,-56
4972,819,775,960,743,175,17060,-2336,1764,-983,-38,-32
4975,819,778,961,746,176,16968,-2308,1948,-941,-49,-41
4978,816,779,959,743,171,16964,-2300,1832,-964,-36,-24
4981,816,781,963,740,170,17068,-2352,1932,-948,-45,-30
4984,811,777,962,738,171,17096,-2356,1928,-914,-45,-6
4987,819,777,960,739,168,17004,-2372,2080,-906,7,-24
4990,822,772,960,735,167,17008,-2308,1944,-898,-42,-4
4993,820,774,961,738,171,17176,-2320,1984,-889,-23,-9
4996,816,772,960,738,171,17080,-2360,2092,-887,-28,-4
4999,821,774,961,739,173,17156,-2316,2036,-879,-38,-2
5002,816,775,960,739,171,17148,-2328,1984,-863,18,4
5005,817,778,960,739,176,16996,-2220,1988,-870,19,-7
5008,819,784,961,742,174,17088,-2288,1976,-884,-1,-43
5011,811,778,963,741,169,17080,-2296,2012,-888,-16,5
5014,816,775,959,742,175,17120,-2352,2016,-896,-19,-10
5017,817,779,963,743,176,17072,-2288,2028,-873,-46,-16
5020,821,779,960,745,166,17096,-2320,2088,-897,-43,-5
5023,816,779,957,735,172,17128,-2352,1972,-893,-33,-20
5026,822,782,959,746,168,17052,-2196,2044,-922,-52,-13
5029,815,779,957,745,174,17080,-2180,1920,-882,-21,-26
5032,822,784,959,745,171,16976,-2336,1824,-907,-37,-31
5035,811,783,954,743,172,16916,-2320,1944,-908,-39,-22
5038,816,782,959,739,175,17072,-2312,1868,-889,-56,-32
5041,816,777,953,747,175,17060,-2236,1864,-928,-55,-46
5044,817,778,960,739,176,17008,-2084,1884,-915,-15,-27
5047,817,780,961,745,175,17036,-2180,2044,-935,-43,-18
5050,817,782,962,744,174,17080,-2228,1980,-934,-21,-47
5053,816,781,960,742,175,17040,-2248,1976,-937,-19,-41
5056,816,778,960,743,177,17068,-2216,1892,-923,-15,-24
5059,819,781,960,743,175,17144,-2204,1948,-923,-1,-19
5062,816,777,958,746,167,17044,-2260,2076,-926,-15,-34
5065,817,774,959,749,172,17112,-2208,1888,-955,0,-37
5068,817,777,961,750,174,17084,-2232,2020,-961,28,-5
5071,806,779,960,752,170,16984,-2248,1852,-966,-10,-25
5074,816,775,958,749,173,16996,-2272,2108,-942,5,-10
5077,816,779,959,758,175,17040,-2312,1976,-963,23,-14
5080,814,777,960,752,175,17072,-2336,1892,-939,-27,-38
5083,819,773,958,753,174,17064,-2276,1852,-936,3,-35
5086,817,780,975,754,175,17064,-2376,1996,-946,3,-28
5089,818,774,959,752,169,17128,-2240,1988,-952,-31,-1
5092,818,777,962,753,174,17016,-2312,2084,-915,-18,-41
5095,817,777,960,752,171,16948,-2348,1980,-930,-32,-62
5098,822,773,960,751,170,17028,-2336,2080,-916,-31,-36
5101,817,779,962,753,171,17120,-2344,2108,-894,-37,-19
5104,820,771,962,751,170,17040,-2324,1900,-908,-36,-15
5107,818,775,961,748,173,16992,-2388,2088,-867,-46,-34
5110,816,772,960,756,171,17024,-2324,1940,-868,-57,-23
5113,819,775,959,755,170,17156,-2360,1968,-856,-56,-16
5116,816,775,959,743,169,17172,-2356,1864,-866,-44,-23
5119,819,775,962,746,175,17040,-2296,1936,-847,-44,-1
5122,816,773,960,745,173,17168,-2188,1864,-846,-48,-26
5125,820,775,958,749,170,16964,-2308,1904,-840,-62,-30
5128,818,774,960,749,175,17076,-2336,2064,-857,-72,-12
5131,819,774,961,747,170,17036,-2316,1908,-860,-43,-9
5134,817,774,960,747,174,17072,-2296,1976,-870,-60,-9
5137,816,778,960,746,165,16980,-2336,1876,-854,-51,-5
5140,816,774,961,750,167,17080,-2276,1904,-870,-66,-4
5143,817,773,963,741,172,17064,-2276,1928,-877,-42,-4
5146,818,777,965,746,171,17104,-2260,1940,-874,-37,-11
5149,819,775,959,743,167,17028,-2224,1976,-871,-36,-22
5152,816,775,960,743,172,17096,-2248,1988,-860,-13,8
5155,816,774,961,751,176,17072,-2220,1876,-844,-38,2
5158,817,771,959,747,176,17044,-2260,1832,-852,-29,-23
5161,816,771,960,747,172,17072,-2176,2048,-856,-7,-20
5164,816,768,961,746,175,17124,-2196,2084,-860,-21,-12
5167,819,774,960,750,175,17080,-2264,2100,-848,10,-20
5170,818,770,957,749,175,17116,-2272,1992,-852,-4,-37
5173,821,767,960,750,174,17084,-2252,1848,-902,-28,-4
5176,818,772,955,752,173,17140,-2192,2120,-895,-17,-27
5179,815,771,960,751,170,17000,-2172,1880,-888,-28,-13
5182,816,769,960,752,171,17048,-2216,2036,-909,-22,-17
5185,816,773,961,750,174,17024,-2092,2040,-914,-35,-32
5188,816,773,960,750,168,17032,-2164,1940,-935,-48,-17
5191,818,777,961,752,166,17044,-2132,2084,-956,-51,-41
5194,816,771,959,748,170,16924,-2240,2096,-916,-42,-13
5197,816,775,961,751,167,17076,-2192,1924,-939,-42,-16
5200,817,772,957,752,170,17128,-2112,2044,-919,-25,-34
5203,817,772,962,747,169,17120,-2200,2012,-947,-17,-8
5206,817,778,960,747,164,17056,-2100,1960,-946,-28,-15
5209,816,774,962,750,167,17124,-2212,1996,-956,18,-29
5212,836,774,961,745,169,17052,-2256,1836,-965,-20,2
5215,820,773,962,743,167,17176,-2244,2028,-978,27,-23
5218,816,775,960,745,169,17012,-2156,2152,-993,6,-26
5221,818,777,961,746,167,16980,-2196,1984,-1001,-8,-23
5224,817,773,960,749,167,17096,-2236,2012,-982,13,-24
5227,816,777,964,748,171,17028,-2284,2108,-982,9,-34
5230,815,769,962,746,174,17028,-2300,2064,-1005,14,-17
5233,816,777,965,751,171,17024,-2276,2108,-981,-14,-40
5236,816,779,963,752,166,17028,-2284,2036,-957,12,-32
5239,816,774,963,752,169,17004,-2328,2120,-944,-30,-54
5242,816,769,960,750,169,16952,-2348,2100,-939,-21,-39
5245,816,772,960,755,173,17072,-2372,2088,-928,-51,-40
5248,816,774,960,752,167,17044,-2372,1964,-916,-38,-37
5251,819,771,960,751,168,17060,-2400,2032,-919,-64,-38
5254,816,770,960,751,170,16996,-2364,2060,-910,-48,-27
5257,817,773,960,752,167,17028,-2336,2076,-904,-60,-8
5260,816,775,959,750,171,17040,-2356,2112,-882,-53,-26
5263,818,772,962,751,172,17100,-2328,2044,-891,-58,-32
5266,816,775,962,751,175,17152,-2216,1972,-887,-56,-9
5269,816,768,959,751,170,17192,-2272,2116,-872,-42,-49
5272,816,771,960,750,170,17064,-2280,1848,-884,-44,-24
5275,816,774,959,755,170,17080,-2260,1888,-912,-41,-25
5278,814,774,962,752,173,17088,-2316,2080,-907,-51,-18
5281,816,788,962,751,171,17112,-2236,2040,-898,-33,-42
5284,817,770,960,752,169,17116,-2244,2080,-917,-14,-21
5287,818,772,960,749,171,17068,-2112,1924,-917,-36,-40
5290,819,777,955,751,165,17068,-2204,2000,-947,-21,-35
5293,817,779,961,750,174,16992,-2264,1948,-956,-8,-37
5296,818,775,961,750,170,16928,-2124,1984,-954,-19,-34
5299,816,773,962,751,170,17036,-2188,1912,-970,9,-57
5302,816,771,956,750,173,16924,-2232,1796,-976,20,-46
5305,817,778,958,750,168,17060,-2228,2072,-986,4,-22
5308,819,786,960,752,171,17136,-2208,2136,-976,10,-42
5311,816,780,963,752,170,17048,-2144,2060,-997,15,-23
5314,818,778,966,751,171,17112,-2140,1964,-991,1,-42
5317,817,775,960,753,173,17164,-2288,2116,-975,5,-36
5320,815,778,961,752,171,17112,-2220,1908,-1021,10,-19
5323,816,774,960,755,173,17184,-2260,1972,-1007,45,-42
5326,816,774,961,752,174,17068,-2256,1912,-1012,2,-26
5329,816,777,963,752,171,17128,-2288,1876,-1033,-5,-31
5332,816,772,961,759,173,17096,-2244,1920,-1042,-8,-30
5335,817,775,962,753,175,16948,-2228,2048,-1022,-42,-23
5338,817,777,963,752,170,17028,-2332,1992,-1030,-54,-36
5341,816,771,959,752,166,17004,-2316,2088,-1021,-48,-39
5344,816,781,963,752,173,17088,-2332,2084,-1017,-46,-22
5347,816,773,965,754,175,17104,-2340,1996,-1015,-48,-21
5350,817,774,961,750,172,17032,-2380,1860,-1017,-49,-43
5353,816,770,961,759,167,17096,-2376,1992,-1000,-24,-32
5356,816,769,959,751,172,17192,-2332,1892,-1010,-25,-10
5359,815,767,960,752,171,17028,-2308,1904,-983,-45,-34
5362,813,768,963,752,166,16996,-2372,2036,-977,-26,-34
5365,816,771,960,754,170,17064,-2360,1944,-993,-36,-11
5368,816,772,961,753,171,17124,-2376,2148,-1001,-52,-7
5371,816,768,962,753,167,17092,-2252,1864,-974,-67,-23
5374,816,771,964,752,170,17140,-2240,2044,-967,-37,-30
5377,803,768,962,752,167,17056,-2272,1976,-959,-42,-6
5380,813,769,964,752,170,17116,-2296,2000,-957,-33,-8
5383,814,768,960,759,173,17184,-2332,2020,-952,-10,10
5386,817,770,960,752,169,17152,-2320,1852,-948,-27,14
5389,816,768,959,753,170,17020,-2396,1952,-941,-32,-3
5392,816,774,960,752,170,17008,-2232,2000,-964,-34,-1
5395,817,775,960,752,169,17072,-2284,1928,-965,-22,-10
5398,816,769,960,752,172,17064,-2248,2064,-983,-22,0
5401,816,767,963,753,173,17080,-2284,2032,-995,-7,-25
5404,816,767,962,752,166,17016,-2264,2024,-985,-31,-11
5407,815,769,960,752,166,17052,-2272,1984,-1014,-28,-48
5410,816,766,960,747,171,17080,-2316,2076,-1019,-27,-34
5413,815,769,961,743,170,17060,-2288,1880,-1030,-21,-46
5416,816,769,962,741,166,17044,-2244,1920,-1033,-17,-24
5419,821,772,959,746,169,17104,-2216,2000,-1042,-12,-62
5422,816,769,961,738,169,17060,-2216,1988,-1028,-2,-42
5425,816,766,962,735,165,17036,-2184,1968,-1019,-4,-45
5428,820,767,961,737,169,17048,-2244,2036,-1033,1,-31
5431,817,766,963,741,171,17004,-2124,1992,-1010,19,-41
5434,816,768,965,739,173,17040,-2136,1936,-1039,28,-31
5437,814,769,965,738,170,17092,-2232,2000,-1039,20,-47
5440,815,766,964,740,175,17104,-2200,2084,-1029,5,-31
5443,817,769,962,745,170,17008,-2272,1968,-1028,29,-50
5446,815,767,967,743,170,17000,-2292,1976,-1040,20,-22
5449,816,770,960,746,171,16964,-2312,2032,-1026,8,-46
5452,816,775,970,745,173,17060,-2148,2000,-1030,5,-36
5455,819,771,962,742,170,16968,-2264,2064,-1023,2,-39
5458,816,770,963,742,174,17024,-2232,1960,-1020,12,-53
5461,816,770,961,740,172,16968,-2320,1836,-1006,12,-64
5464,817,771,963,741,172,17076,-2116,1948,-985,-12,-39
5467,815,769,967,740,170,17032,-2272,2020,-989,-10,-41
5470,816,770,964,748,168,16996,-2288,1968,-968,15,-43
5473,816,772,965,749,176,17056,-2292,1952,-954,-4,-59
5738,836,791,962,759,899,17192,-2292,2024,-906,9,-104
5742,832,791,963,762,871,17160,-2308,1824,-937,-5,-110
5745,835,795,961,763,838,17184,-2292,2084,-924,16,-108
5748,816,772,955,746,785,17056,-2348,1920,-932,-3,-120
5751,815,773,951,747,754,17044,-2236,1884,-945,-3,-121
5754,816,784,955,743,729,17056,-2276,2056,-959,-15,-123
5757,813,777,954,746,704,17080,-2264,1920,-968,-12,-109
5760,811,773,949,752,678,17172,-2208,2024,-964,27,-118
5763,822,775,951,752,656,17088,-2312,2096,-973,29,-114
5766,815,779,956,756,627,17052,-2292,1996,-964,28,-109
5769,816,775,957,741,604,16980,-2240,2044,-971,47,-111
5772,816,775,958,745,586,17028,-2208,1996,-964,34,-105
5775,816,773,953,742,572,16960,-2288,2132,-958,47,-129
5778,822,775,960,742,554,17032,-2348,1932,-919,59,-105
5781,807,772,956,741,529,17004,-2268,1912,-923,67,-114
5784,815,768,959,745,511,17044,-2264,1996,-919,75,-111
5787,816,775,962,752,493,17032,-2280,1952,-905,48,-109
5790,816,775,951,746,474,16976,-2204,2100,-899,81,-73
5793,818,768,953,749,461,17064,-2208,1944,-878,69,-103
5796,817,773,957,746,448,17152,-2284,1996,-877,71,-78
5799,816,778,951,749,434,17060,-2132,1992,-879,81,-93
5802,817,784,955,751,423,17012,-2168,2020,-865,58,-95
5805,816,775,954,749,410,17076,-2280,1964,-898,53,-106
5808,816,772,955,748,400,17020,-2240,2044,-868,69,-103
5811,816,775,954,749,389,17028,-2124,1908,-893,41,-135
5814,816,771,953,752,376,17016,-2264,1880,-890,9,-96
5817,813,772,954,757,368,17072,-2228,2040,-902,24,-118
5820,816,769,951,751,366,17020,-2296,1924,-903,18,-117
5823,818,773,956,749,347,17088,-2176,2092,-932,-9,-130
5826,814,773,955,752,341,17108,-2276,1996,-898,16,-107
5829,816,775,963,745,330,17108,-2228,1844,-948,-13,-141
5832,804,778,951,746,329,17092,-2288,1916,-951,-4,-140
5835,816,778,954,746,319,17128,-2216,2040,-940,12,-124
5838,813,782,956,746,309,17120,-2280,1948,-929,-34,-127
5841,814,778,949,749,305,17160,-2292,1936,-972,-1,-146
5844,816,788,951,748,303,17168,-2204,1880,-944,-6,-154
5847,817,781,948,747,291,17036,-2272,1960,-964,-3,-166
5850,815,779,958,751,290,17064,-2184,1912,-957,-5,-173
5853,816,789,958,747,281,17096,-2260,1924,-956,-15,-164
5856,825,777,950,742,277,17044,-2284,1828,-943,-24,-174
5859,816,777,954,747,272,17108,-2212,1896,-927,-17,-175
5862,816,784,955,747,268,16980,-2228,2024,-929,1,-171
5865,816,782,955,748,260,17004,-2300,2064,-921,14,-184
5868,818,778,955,750,256,17000,-2232,2036,-920,30,-185
5871,816,781,953,747,251,17052,-2204,2020,-885,20,-176
5874,816,781,959,738,250,17040,-2292,2160,-908,16,-177
5877,817,779,957,743,245,17072,-2164,2164,-887,41,-182
5880,818,775,953,743,242,17068,-2168,1992,-856,53,-162
5883,817,777,953,747,240,17064,-2280,2060,-849,77,-180
5886,816,775,954,747,239,17120,-2264,2048,-837,60,-151
5889,817,775,953,746,234,17064,-2208,2148,-839,77,-139
5892,818,774,960,752,230,17084,-2260,2100,-845,84,-134
5895,816,777,951,752,227,17124,-2348,2032,-833,106,-128
5898,816,782,956,751,223,17136,-2260,2156,-849,94,-121
5901,818,781,952,751,219,17052,-2292,2052,-841,109,-136
5904,818,784,954,753,221,17124,-2268,2016,-869,113,-135
5907,820,779,951,752,223,17016,-2316,2000,-871,82,-127
5910,815,784,953,753,222,17112,-2188,1916,-868,80,-158
5913,832,781,953,752,214,17048,-2248,1892,-891,60,-145
5916,816,783,951,754,210,17000,-2188,1900,-913,45,-145
5919,815,784,955,752,208,17036,-2232,1896,-895,42,-170
5922,813,781,953,752,211,17056,-2188,1868,-907,39,-189
5925,816,783,951,752,207,16988,-2220,1836,-903,36,-192
5928,816,783,953,753,206,17072,-2204,2000,-905,71,-190
5931,817,784,955,758,206,17012,-2268,1896,-891,36,-203
5934,816,784,953,755,208,16996,-2240,1956,-890,79,-189
5937,818,781,954,758,201,17108,-2272,1896,-880,53,-190
5940,817,781,953,758,204,17064,-2084,1912,-870,66,-198
5943,816,780,953,755,195,16976,-2204,2044,-841,53,-210
5946,816,783,955,759,195,17072,-2160,1984,-854,78,-187
5949,815,782,954,762,195,17096,-2208,2036,-875,31,-194
5952,817,783,958,754,196,17076,-2220,2064,-856,70,-190
5955,816,784,956,755,195,17008,-2108,2008,-861,30,-177
5958,816,783,956,753,193,16964,-2204,2000,-859,63,-213
5961,816,783,959,752,193,16956,-2216,1956,-874,66,-207
5964,816,781,953,752,193,17112,-2260,1980,-857,56,-181
5967,817,783,954,752,192,17008,-2260,2056,-870,87,-193
5970,814,781,953,752,192,17004,-2300,2064,-871,81,-198
5973,816,781,954,754,192,17008,-2312,1980,-875,66,-186
5976,817,781,951,753,191,16980,-2248,2096,-867,62,-156
5979,816,779,955,751,191,17044,-2304,2004,-863,54,-166
5982,819,783,957,752,187,17032,-2244,2100,-860,59,-154
5985,816,778,955,752,190,16984,-2216,1972,-867,51,-139
5988,818,770,956,749,190,17104,-2260,1932,-859,68,-143
5991,816,779,956,745,186,17156,-2240,1856,-875,92,-137
5994,816,779,949,749,186,17044,-2320,1960,-882,76,-138
5997,817,780,955,750,182,17096,-2240,1940,-879,54,-146
6000,820,782,953,752,181,17080,-2208,1896,-912,76,-147
6003,816,782,956,746,187,17076,-2248,1856,-902,57,-143
6006,816,783,954,747,186,16996,-2172,1844,-918,77,-150
6009,816,783,947,748,181,17044,-2224,1944,-912,50,-183
6012,816,780,953,752,183,17008,-2224,1812,-943,42,-164
6015,819,781,957,750,181,17052,-2280,1952,-917,36,-176
6018,817,781,955,759,182,17108,-2224,1872,-933,51,-143
6021,813,784,957,749,182,17052,-2248,2048,-894,25,-180
6024,816,781,951,749,180,17056,-2296,1940,-923,49,-155
6027,816,780,957,757,182,17072,-2140,1992,-900,55,-165
6030,822,777,958,752,179,17140,-2164,1896,-897,65,-150
6033,816,775,955,752,178,17020,-2196,1888,-897,70,-178
6036,816,779,955,751,177,16996,-2152,1928,-907,66,-173
6039,815,774,958,754,177,16984,-2220,1984,-899,75,-174
6042,819,781,958,754,180,17052,-2096,1888,-890,72,-158
6045,817,779,962,750,178,17088,-2224,2104,-873,129,-173
6048,816,783,960,754,183,17044,-2212,1944,-871,141,-128
6051,815,779,959,753,178,17088,-2100,1956,-871,136,-164
6054,815,777,959,753,177,17092,-2124,1900,-848,168,-153
6057,814,779,955,752,176,17116,-2184,2024,-862,173,-138
6060,816,778,958,752,185,17056,-2184,2040,-843,168,-156
6063,817,778,952,752,180,17108,-2272,1944,-869,173,-173
6066,820,775,957,754,183,17016,-2216,1796,-900,153,-153
6069,816,775,959,752,180,17104,-2268,1768,-888,165,-187
6072,818,777,960,749,179,17044,-2284,2012,-901,148,-169
6075,816,772,961,752,179,16960,-2252,1940,-927,188,-148
6078,815,771,962,751,180,17028,-2196,1988,-900,166,-157
6081,811,771,961,759,176,17096,-2224,1960,-888,187,-150
6084,813,764,960,747,177,17100,-2216,1820,-930,200,-135
6087,814,770,967,743,177,17040,-2140,2008,-916,197,-136
6090,813,769,961,746,179,16952,-2136,1892,-896,203,-132
6093,809,769,963,736,180,17024,-2216,1904,-918,218,-132
6096,812,768,966,734,178,16972,-2120,1892,-935,246,-133
6099,814,769,967,735,181,16980,-2184,1976,-939,258,-153
6102,809,770,965,730,177,16940,-2176,2068,-927,292,-152
6105,813,766,965,723,178,17024,-2172,1868,-953,305,-138
6108,812,768,971,721,176,16996,-2156,2004,-963,326,-129
6111,816,766,967,721,176,17036,-2108,1864,-967,358,-142
6114,813,765,969,719,176,17056,-2152,1924,-976,360,-120
6117,797,768,967,718,176,17044,-2040,1928,-1010,371,-135
6120,813,771,972,713,176,17124,-2148,1956,-1025,382,-110
6123,816,769,969,710,182,17296,-2076,1860,-1001,417,-62
6126,812,773,964,713,176,17300,-2172,1836,-996,443,-65
6129,812,772,963,709,177,17328,-2088,1820,-1006,484,-15
6132,815,771,961,720,181,17284,-2052,1768,-980,460,-15
6135,814,779,963,719,176,17332,-2040,1812,-972,501,-17
6138,815,775,957,722,178,17312,-2040,1812,-998,515,2
6141,816,780,954,720,176,17264,-2040,1800,-1000,516,3
6144,815,783,957,751,177,17240,-2048,1864,-1021,504,15
6147,816,781,954,721,177,17104,-1956,1732,-1035,454,9
6150,816,784,957,726,179,17288,-1984,1704,-1043,506,14
6153,817,781,958,732,176,17128,-2016,1672,-1046,496,11
6156,814,782,953,731,179,17216,-2156,1676,-1064,481,10
6159,814,784,960,734,187,16948,-1952,1856,-1085,472,2
6162,807,779,959,734,181,17084,-2044,1792,-1095,410,-22
6165,816,782,966,731,183,16972,-2016,1780,-1088,393,-17
6168,815,774,955,730,183,16912,-2060,1592,-1104,353,-8
6171,814,771,959,727,181,16980,-2000,1916,-1119,386,-54
6174,814,774,959,730,182,16932,-1964,1640,-1102,367,-48
6177,816,775,963,734,180,16972,-1916,1736,-1091,361,-46
6180,814,768,962,731,179,16968,-1948,1728,-1075,362,-69
6183,815,770,962,734,178,16976,-2056,1728,-1087,371,-56
6186,817,768,960,737,186,17212,-1968,1720,-1039,359,-24
6189,814,769,961,736,181,17064,-1960,1860,-1046,393,-6
6192,813,770,962,734,176,17160,-1956,1708,-1020,402,-36
6195,815,767,961,733,179,17104,-1928,1720,-1020,387,-5
6198,822,768,962,734,182,17196,-2040,1824,-1055,369,-12
6201,833,769,964,731,181,17092,-2008,1720,-1033,405,-12
6204,816,769,964,728,178,17100,-1952,1712,-1044,405,-20
6207,816,768,963,733,177,17236,-2068,1656,-1028,399,-34
6210,816,765,966,726,178,17292,-2120,1708,-1032,384,-71
6213,816,765,963,731,180,17296,-2024,1656,-1069,385,-36
6216,816,768,965,734,180,17288,-2120,1848,-1047,428,-77
6219,815,769,971,730,177,17252,-2088,1792,-1100,310,-90
6222,816,769,967,731,177,17192,-2128,1844,-1085,297,-65
6225,813,771,969,738,177,17228,-2108,1780,-1076,281,-79
6228,818,768,987,737,176,17364,-2096,1848,-1086,245,-107
6231,817,768,981,741,176,17400,-2076,1868,-1093,204,-106
6234,814,773,964,745,178,17416,-2160,1812,-1124,218,-141
6237,815,768,960,746,181,17280,-2152,1920,-1127,200,-116
6240,816,773,960,750,179,17112,-2156,1776,-1163,163,-151
6243,816,765,959,753,176,17192,-2164,1908,-1169,190,-157
6246,815,771,961,758,177,17132,-2192,1816,-1242,202,-151
6249,816,769,958,759,176,17136,-2176,1756,-1274,220,-161
6252,816,774,960,757,176,17096,-2180,1824,-1331,246,-142
6255,816,775,957,755,176,17028,-2256,1824,-1345,238,-121
6258,816,771,958,752,176,17100,-2328,1936,-1322,246,-117
6261,816,779,958,757,177,17080,-2432,1776,-1327,244,-61
6264,816,778,957,753,176,17060,-2388,2052,-1295,230,-86
6267,819,778,955,754,175,17136,-2384,1872,-1260,269,-67
6270,819,781,950,753,176,17100,-2336,1996,-1213,289,-63
6273,816,781,951,752,173,17048,-2352,2052,-1154,295,-46
6276,816,781,951,753,175,17028,-2340,2076,-1111,309,-1
6279,820,783,954,751,176,16960,-2408,2048,-1053,319,-16
6282,817,779,955,752,179,16944,-2336,2076,-993,287,-27
6285,825,777,956,752,176,16888,-2380,2240,-953,281,-34
6288,820,775,957,751,176,16940,-2284,2232,-927,292,-33
6291,816,777,951,752,178,17008,-2272,2200,-860,304,-19
6294,815,775,954,748,176,17012,-2360,2180,-801,328,-22
6297,815,772,954,749,176,16968,-2180,2052,-768,326,0
6300,816,773,958,739,176,17048,-2180,2380,-709,338,-8
6303,815,771,954,739,176,17056,-2104,2240,-682,321,3
6306,816,783,951,746,176,17124,-2112,2128,-670,332,-17
6309,812,769,954,745,179,17100,-2072,2208,-658,315,-39
6312,814,773,956,742,176,17072,-2012,2060,-661,327,-22
6315,816,769,957,735,176,17000,-1944,2032,-651,260,-39
6318,817,772,960,735,180,16992,-1908,2120,-670,245,-46
6321,817,770,956,735,177,17084,-1856,2128,-663,225,-73
6324,816,768,960,735,175,17040,-1912,2168,-721,245,-75
6327,816,767,959,738,177,16992,-1864,2148,-719,235,-87
6330,816,767,960,731,176,17040,-1748,1916,-739,266,-79
6333,816,765,964,719,176,17028,-1844,2100,-794,293,-114
6336,818,757,961,726,176,16924,-1876,2124,-800,344,-129
6339,816,752,965,718,176,16816,-1712,2040,-816,376,-160
6342,816,756,963,715,176,16976,-1728,2116,-863,459,-149
6345,816,757,966,710,176,16896,-1756,2048,-933,510,-186
6348,816,757,987,713,175,16992,-1764,2148,-982,556,-179
6351,813,758,970,704,173,16956,-1644,2104,-1039,590,-176
6354,813,762,967,708,176,16884,-1808,2108,-1112,634,-159
6357,815,762,969,711,175,17076,-1660,2076,-1155,692,-139
6360,817,758,965,705,176,17200,-1808,2112,-1215,691,-108
6363,816,759,966,702,171,17040,-1812,2028,-1236,737,-107
6366,817,765,961,708,176,17028,-1768,2020,-1282,755,-69
6369,823,759,964,701,172,17092,-1800,2196,-1343,824,-88
6372,814,762,966,706,175,17140,-1864,2324,-1416,883,-119
6375,816,762,960,713,175,17144,-1948,2068,-1480,879,-73
6378,814,748,960,704,173,16916,-1924,2092,-1543,865,-98
6381,817,765,976,706,176,17112,-1840,2016,-1572,907,-81
6384,816,770,963,708,176,17224,-2040,1992,-1625,950,-87
6387,816,765,961,714,176,17180,-2092,2136,-1649,973,-92
6390,813,768,962,707,176,17208,-2092,2092,-1696,1017,-71
6393,816,770,966,710,169,17184,-2056,2124,-1692,1058,-91
6396,813,771,962,706,171,17024,-2184,2180,-1712,1052,-102
6399,815,772,966,714,176,17172,-2200,2148,-1733,1112,-112
6402,814,775,964,717,175,17000,-2204,2084,-1746,1131,-116
6405,817,774,967,709,176,17024,-2332,2180,-1787,1112,-109
6408,816,775,967,704,175,16964,-2316,2148,-1799,1087,-116
6411,815,770,970,707,177,16904,-2336,1976,-1811,1083,-141
6414,816,767,973,697,176,16920,-2340,2300,-1779,1175,-125
6417,804,765,971,699,176,16976,-2348,2140,-1762,1141,-101
6420,816,759,975,692,176,17052,-2132,2212,-1724,1186,-92
6423,815,763,981,693,174,17112,-2212,2132,-1708,1222,-65
6426,813,755,976,691,176,17188,-2236,2144,-1640,1241,-26
6429,816,753,976,688,176,17352,-2028,2008,-1662,1345,-1
6432,814,752,974,688,174,17324,-2196,2072,-1602,1395,17
6435,814,762,974,689,176,17424,-2060,1964,-1586,1383,52
6438,813,757,971,688,175,17380,-2088,2024,-1593,1411,88
6441,811,759,978,688,175,17444,-2004,2064,-1601,1466,66
6444,811,768,966,691,178,17652,-2032,1804,-1626,1491,99
6447,815,769,966,695,175,17416,-1948,1972,-1638,1504,152
6450,814,767,965,690,176,17380,-1980,1712,-1687,1566,167
6453,815,769,961,693,176,17276,-2052,1764,-1690,1606,170
6456,817,771,963,700,176,17056,-2180,1776,-1673,1582,190
6459,815,775,961,688,176,17340,-2164,1648,-1696,1597,172
6462,821,774,964,695,176,17208,-2232,1604,-1691,1603,189
6465,816,767,963,702,176,17160,-2200,1740,-1708,1685,222
6468,815,773,969,700,176,17100,-2328,1604,-1658,1607,254
6471,818,771,965,701,176,17044,-2300,1660,-1657,1571,260
6474,818,767,977,705,178,17244,-2080,1688,-1668,1514,293
6477,817,771,971,705,176,17252,-2224,1608,-1651,1467,370
6480,816,773,971,708,177,17368,-2204,1588,-1592,1451,371
6483,816,771,971,710,176,17352,-2156,1664,-1529,1377,444
6486,816,773,965,719,178,17428,-1996,1644,-1552,1371,474
6489,816,768,974,713,176,17408,-2108,1448,-1559,1332,512
6492,821,757,969,716,179,17436,-1952,1652,-1546,1334,531
6495,815,795,963,720,177,17376,-1948,1876,-1598,1260,538
6498,816,765,974,720,178,17260,-1972,1868,-1639,1239,531
6501,813,770,974,720,176,17236,-1996,1880,-1661,1234,539
6504,817,770,971,720,176,17164,-2040,1860,-1639,1245,558
6507,816,768,970,718,176,17140,-1936,1880,-1639,1210,548
6510,815,763,976,718,176,17180,-2088,1884,-1677,1142,547
6513,816,761,971,721,176,16968,-2064,1896,-1602,1230,567
6516,816,757,973,720,179,17112,-2088,1796,-1514,1204,598
6519,815,761,975,720,179,16964,-2092,1876,-1524,1085,601
6522,808,752,971,721,177,16964,-2264,1728,-1450,1094,648
6525,816,752,974,725,176,17004,-2332,2080,-1328,1175,636
6528,816,746,971,727,176,16964,-2328,1920,-1238,1160,678
6531,806,753,967,727,178,16972,-2352,1796,-1132,1100,703
6534,816,754,968,725,176,17044,-2348,1864,-1042,1093,730
6537,816,752,970,725,176,16844,-2460,1988,-935,1147,794
6540,816,754,970,725,178,16988,-2416,1992,-847,1098,831
6543,816,755,968,726,176,16984,-2468,2092,-775,1109,885
6546,815,764,963,727,177,17012,-2496,2164,-660,1110,931
6549,803,757,967,723,176,17044,-2540,2164,-568,1074,974
6552,816,757,972,729,176,16908,-2484,2240,-520,1060,1034
6555,814,768,969,724,176,17068,-2472,2040,-447,1011,1075
6558,816,764,965,729,177,17024,-2584,2008,-388,981,1131
6561,805,759,967,727,176,17160,-2452,1892,-317,948,1193
6564,816,758,974,720,175,17092,-2520,2064,-300,909,1233
6567,815,761,966,722,176,17068,-2464,1932,-265,836,1301
6570,813,767,966,720,175,17124,-2520,2016,-212,824,1359
6573,816,755,966,725,176,17168,-2516,2168,-172,871,1422
6576,816,759,965,720,175,17132,-2548,2048,-154,859,1481
6579,810,767,970,723,175,17120,-2612,2248,-135,738,1498
6582,814,770,967,721,174,17108,-2704,2208,-154,691,1577
6585,816,769,964,725,174,16960,-2696,2224,-118,720,1590
6588,802,775,966,725,173,16900,-2708,2264,-154,601,1589
6591,815,771,967,725,174,17048,-2652,2308,-193,524,1673
6594,837,775,971,734,176,16936,-2728,2328,-228,395,1728
6597,818,784,969,742,172,16964,-2856,2504,-286,322,1767
6600,816,773,963,741,173,17120,-2864,2620,-312,232,1823
6603,816,767,973,749,171,17296,-2908,2752,-283,101,1902
6606,813,770,975,752,175,17344,-3044,2796,-327,96,1955
6609,816,768,972,752,176,17352,-2976,2908,-339,53,2033
6612,807,769,983,753,176,17372,-3020,2792,-327,11,2064
6615,815,763,973,754,171,17524,-3056,2972,-322,24,2130
6618,812,763,976,752,171,17496,-2988,3036,-315,65,2182
6621,817,765,976,753,167,17304,-3036,3060,-324,-12,2242
6624,818,763,976,759,163,17500,-3192,3292,-196,-23,2273
6627,821,763,976,764,167,17440,-3236,3368,-153,-16,2326
6630,822,766,976,766,166,17584,-3292,3308,-13,-16,2364
6633,817,764,976,773,171,17564,-3424,3324,152,-30,2427
6636,816,774,975,775,165,17632,-3440,3224,286,-79,2468
6639,812,768,974,780,169,17652,-3460,3472,396,-14,2546
6642,806,769,975,783,165,17644,-3648,3388,571,-56,2545
6645,814,771,973,784,171,17692,-3728,3368,584,-88,2558
6648,814,773,974,784,166,17472,-3764,3368,610,-173,2629
6651,806,773,976,797,165,17420,-3896,3408,597,-240,2641
6654,817,781,975,787,169,17508,-4000,3344,581,-234,2664
6657,816,775,976,787,165,17496,-4040,3480,498,-337,2734
6660,819,784,976,789,166,17480,-4144,3324,434,-485,2771
6663,816,781,976,795,167,17372,-4272,3672,356,-645,2890
6666,816,781,975,788,161,17392,-4380,3644,354,-727,3052
6669,816,784,975,784,163,17704,-4336,3476,291,-821,3183
6672,816,784,976,791,160,17756,-4392,3780,299,-739,3345
6675,811,782,974,791,164,17816,-4564,3756,367,-706,3524
6678,810,780,973,788,162,17664,-4520,3552,364,-708,3714
6681,809,799,970,784,164,17544,-4712,3752,461,-801,3880
6684,811,781,973,778,162,17476,-4676,3672,524,-884,3996
6687,810,783,970,774,167,17512,-4672,3632,537,-960,4091
6690,814,789,973,768,163,17488,-4696,3516,653,-1056,4269
6693,814,797,973,784,165,17428,-4708,3596,714,-1102,4405
6696,816,791,971,769,171,17276,-4764,3368,737,-1366,4487
6699,816,795,974,767,166,17408,-4688,3272,716,-1465,4597
6702,814,796,967,759,165,17228,-4704,3340,678,-1328,4604
6705,810,792,971,759,162,16960,-4772,3216,678,-1395,4698
6708,805,798,962,754,165,16528,-5036,3200,737,-1528,4834
6711,811,800,964,754,165,16556,-5012,2960,694,-1793,4967
6714,812,810,962,755,162,16332,-5172,3032,811,-1734,5050
6717,815,815,969,752,165,15916,-5092,3048,860,-1590,5176
6720,814,814,971,754,164,15648,-5316,2936,823,-1672,5227
6723,812,796,969,760,165,15384,-5440,3180,775,-1769,5410
6726,801,811,970,767,161,15108,-5640,3020,753,-1883,5580
6729,796,816,976,770,165,15072,-5624,3120,793,-2069,5706
6732,785,816,981,779,163,15036,-5888,2888,644,-2129,5897
6735,794,813,983,789,162,15320,-5860,3152,539,-2062,6005
6738,793,802,1002,778,166,15188,-6116,3128,484,-2045,6204
6741,792,800,1008,781,166,15104,-6416,2876,352,-2148,6434
6744,791,795,1008,779,163,15428,-6512,2796,351,-2166,6581
6747,785,783,1010,780,163,15220,-6660,2556,293,-2515,6751
6750,784,772,1023,783,169,15264,-6800,2340,231,-2887,6911
6753,767,756,1021,774,163,15452,-6968,2568,184,-2817,7039
6756,777,751,1023,757,167,15548,-7248,2356,383,-2837,7261
6759,784,746,1022,759,161,15528,-7444,2444,461,-3094,7415
6762,779,729,1034,771,161,15684,-7324,2220,344,-3370,7563
6765,784,724,1041,774,159,15784,-7720,2260,527,-3240,7637
6768,786,720,1042,784,159,16136,-8052,2216,910,-2834,7762
6771,789,713,1040,772,162,15976,-7808,1768,726,-3406,7643
6774,785,708,1020,766,157,16416,-7792,2356,982,-3284,7838
6777,786,698,1034,770,159,16404,-7944,1800,1291,-3114,7792
6780,785,693,1023,773,159,16820,-7864,2780,1849,-2573,8054
6783,791,699,1034,782,161,16916,-7944,1844,2043,-3018,8076
6786,800,690,1037,781,159,17292,-7720,1544,2211,-2998,8000
6789,803,693,1023,779,162,17416,-7724,2196,2643,-2528,7999
6792,807,692,1031,777,166,17736,-7620,2172,2989,-1980,7956
6795,811,691,1033,780,170,17936,-7468,1908,3347,-1702,7949
6798,816,690,1022,769,161,17776,-7352,1732,3526,-1903,7848
6801,832,694,1008,767,163,17796,-7144,1732,3584,-1921,7805
6804,845,695,1023,761,173,17772,-7300,2280,3987,-2034,7775
