timestamp_ms,mmg1,mmg2,mmg3,accelX,accelY,accelZ,gyroX,gyroY,gyroZ
759180,1762,1011,952,16904,-1240,-2008,-1456,3513,3875
759190,1762,984,953,16208,-864,624,-1456,1662,3438
759200,1756,1170,954,15784,-720,452,-1456,1732,942
759210,1749,903,949,15560,-684,-988,-1456,115,-1602
759220,1763,911,949,16420,-948,-1160,-1456,-1872,-3270
759230,1759,935,952,16776,-1072,-968,-1440,-3198,-4328
759240,1763,940,955,16328,-1080,-476,-1488,-3796,-5185
759250,1759,957,951,16144,-156,276,-1472,-4111,-5902
759260,1759,955,953,16500,-44,312,-1456,-5166,-7465
759270,1762,936,952,17248,-1056,108,-1456,-6664,-7647
759280,1755,905,951,15784,-2044,-732,-1440,-6291,-5749
759290,1751,1004,955,18384,-1784,564,-1488,-5131,-7985
759300,1762,1011,951,17716,-1652,-528,-1440,-4818,-6142
759310,1759,990,951,15500,-2004,-1012,-1488,-2859,-6093
759320,1757,1045,955,18712,-1188,-1268,-1456,-790,-3253
759330,1763,1052,955,17388,-2176,-2208,-1440,-852,-19
759340,1762,1095,950,16880,-1380,-1380,-1456,-32,1469
759350,1763,1033,952,16288,-2312,-856,-1472,-720,701
759360,1763,951,951,16300,-1908,-1228,-1472,-867,-333
759370,1756,1453,955,16292,-1984,-920,-1440,-184,-1136
759380,1761,879,953,16476,-2024,-1504,-1440,446,-1971
759390,1759,954,951,16848,-2048,-684,-1472,2042,-2726
759400,1757,998,947,17356,64,-4340,-1472,3652,-2067
759410,1762,988,949,16664,-1016,-2164,-1472,2528,-1586
759420,1762,1042,949,16888,-1100,-1684,-1456,1857,-1739
759430,1757,1075,953,17072,-1452,-1860,-1440,1625,-978
759440,1759,1035,954,17108,-1748,-1040,-1456,389,96
759450,1762,1019,952,16556,-1912,-1764,-1472,-873,632
759460,1759,997,951,16420,-1696,-1176,-1440,-1062,428
759470,1762,1018,952,16304,-1708,-1460,-1424,-447,-180
759480,1758,1021,950,16312,-1688,-1444,-1456,-170,-697
759490,1761,1053,951,16612,-1492,-1368,-1456,-463,-737
759500,1763,1051,947,16672,-1492,-1580,-1456,-1062,-618
759510,1755,1035,949,16756,-1136,-1220,-1472,-1249,-466
759520,1763,1001,949,16580,-704,-972,-1456,-502,-645
759530,1761,998,942,16520,-468,-1732,-1488,-112,-1000
759540,1759,957,949,16692,-688,-2184,-1488,-887,-1240
759550,1759,1014,947,16692,-788,-1636,-1456,-2023,-1215
759560,1781,1018,950,16700,-1124,-1692,-1440,-2749,-1035
759570,1758,969,950,16636,-1744,-1804,-1472,-2896,-1043
759580,1762,972,948,16468,-2708,-2068,-1440,-2764,-1256
759590,1759,1005,947,16564,-3188,-2292,-1456,-2636,-1337
759600,1757,983,943,16668,-3080,-1924,-1424,-2094,-1408
759610,1759,1001,948,16612,-3020,-1680,-1440,-883,-1226
759620,1758,941,947,16804,-3060,-2340,-1472,-100,-1042
759630,1762,939,948,16680,-2952,-2572,-1472,-197,-936
759640,1759,953,947,16516,-2832,-2304,-1472,-273,-529
759650,1753,973,949,16428,-2728,-2320,-1456,33,-501
759660,1759,968,947,16400,-2656,-2340,-1472,120,-564
759670,1758,986,947,16404,-3040,-2692,-1472,-315,-712
759680,1761,1022,948,16548,-3472,-2456,-1440,-907,-799
759690,1735,1015,950,16512,-4040,-1928,-1440,-1100,-734
759700,1759,1036,964,16364,-4644,-1920,-1472,-906,-655
759710,1762,1075,951,15952,-4744,-1900,-1456,-335,-519
759720,1763,1078,949,16152,-4584,-1332,-1424,613,-635
759730,1763,862,947,17300,-4132,-2236,-1472,1506,-1863
759740,1759,767,951,17236,-3368,-4184,-1440,1548,-2779
759750,1761,857,938,16716,-2308,-4116,-1456,1839,-1558
759760,1757,984,945,16932,-1900,-3888,-1472,2055,305
759770,1785,1047,951,16920,-1568,-3452,-1456,1385,1438
759780,1759,1013,955,16552,-2060,-2860,-1424,-482,1874
759790,1762,989,950,16292,-2696,-1960,-1472,-2356,1469
759800,1763,1013,950,15816,-3312,-1204,-1424,-2619,274
759810,1759,936,939,16040,-3500,-1284,-1456,-1101,-950
759820,1757,955,938,16440,-3368,-1824,-1440,739,-1732
759830,1755,987,941,16952,-2488,-2200,-1456,2100,-1441
759840,1757,987,943,17140,-1600,-3156,-1472,2107,-423
759850,1759,967,947,16748,-1184,-3640,-1440,1020,421
759860,1758,956,951,16584,-952,-3696,-1440,-551,634
759870,1763,1016,960,16472,-984,-3536,-1440,-1985,376
759880,1759,1018,973,16536,-1736,-2688,-1456,-2961,172
759890,1758,989,947,16644,-2300,-1652,-1440,-2845,25
759900,1761,989,947,16612,-2788,-1104,-1472,-1457,-133
759910,1757,853,939,16580,-2596,-1452,-1424,243,-92
759920,1763,958,947,16636,-2208,-1820,-1472,1542,-495
759930,1748,968,941,16632,-1792,-1820,-1472,1977,-524
759940,1757,973,941,16452,-1312,-2588,-1472,1552,-207
759950,1758,958,940,16268,-532,-2888,-1472,858,-104
759960,1757,947,946,16320,-544,-3044,-1440,97,-363
759970,1762,968,943,16232,-820,-3040,-1456,-998,-310
759980,1755,953,940,16536,-932,-2736,-1456,-1779,-244
759990,1759,927,943,16560,-804,-2852,-1440,-1836,-657
760000,1761,871,947,16732,-584,-3012,-1440,-1572,-784
760010,1757,953,948,17020,-612,-2972,-1456,-1381,-379
760020,1759,1019,950,17080,-420,-2824,-1440,-1271,-42
760030,1759,1039,943,16856,-128,-2336,-1488,-936,303
760040,1763,1037,942,16644,28,-2220,-1424,-656,515
760050,1757,1001,940,16504,272,-2108,-1456,-538,715
760060,1757,969,940,16252,512,-2260,-1424,-634,276
760070,1757,980,941,16268,216,-2488,-1456,-966,-168
760080,1757,995,938,16480,488,-2328,-1440,-1194,-372
760090,1759,989,957,16676,652,-2192,-1424,-1030,-452
760100,1757,984,939,16880,652,-2628,-1440,-709,-453
760110,1758,1023,937,16940,648,-3000,-1456,-513,-399
760120,1755,1053,936,16916,908,-3076,-1424,-355,-219
760130,1756,1059,937,16896,880,-2700,-1472,-275,-113
760140,1757,1052,939,16832,872,-2776,-1440,-582,-110
760150,1757,1033,939,16752,532,-2708,-1440,-1203,20
760160,1762,997,941,16584,-72,-2868,-1456,-1809,-10
760170,1757,1012,909,16520,-724,-2428,-1456,-2087,-530
760180,1758,995,938,16444,-1284,-2436,-1440,-1864,-883
760190,1759,989,941,16612,-1984,-2628,-1456,-1651,-1038
760200,1757,955,941,16548,-2784,-2924,-1440,-1643,-985
760210,1759,985,943,16444,-3260,-2976,-1440,-1587,-722
760220,1759,964,947,16256,-3424,-2984,-1440,-1376,-468
760230,1759,941,949,16256,-3724,-3752,-1440,-1011,-594
760240,1757,954,948,16400,-3592,-4084,-1472,-869,-741
760250,1762,985,951,16484,-3492,-4212,-1440,-896,-609
760260,1759,969,955,16648,-3412,-3888,-1472,-1072,-128
760270,1758,941,953,16440,-2984,-3856,-1456,-998,432
760280,1759,1045,951,16468,-2604,-3928,-1440,-677,680
760290,1757,943,951,16524,-2064,-3648,-1456,-455,651
760300,1747,942,955,16596,-1692,-3652,-1472,-648,764
760310,1763,948,948,16736,-1424,-3400,-1472,-1107,925
760320,1757,959,946,16632,-1144,-2848,-1424,-1170,887
760330,1758,958,947,16528,-968,-2724,-1488,-901,779
760340,1757,971,940,16704,-1032,-2596,-1424,-804,763
760350,1761,981,941,16552,-684,-2556,-1472,-519,752
760360,1758,956,941,16784,-692,-2496,-1440,-181,687
760370,1756,957,942,16604,-484,-2588,-1456,-40,613
760380,1737,959,947,16748,-388,-2620,-1424,21,544
760390,1759,987,943,16624,-412,-2564,-1456,106,461
760400,1758,1010,939,16692,-444,-2808,-1456,106,321
760410,1757,1001,939,16648,-460,-2908,-1472,95,252
760420,1757,1003,939,16704,-600,-3024,-1456,80,288
760430,1769,1002,940,16720,-748,-3144,-1424,-165,457
760440,1758,1003,941,16632,-1084,-3076,-1424,-613,497
760450,1762,974,939,16404,-1224,-2860,-1456,-588,463
760460,1757,971,941,16496,-1488,-2908,-1456,-251,338
760470,1759,971,939,16640,-1404,-2880,-1456,-34,398
760480,1753,967,939,16632,-1272,-2712,-1456,88,639
760490,1759,957,943,16600,-968,-2700,-1440,204,843
760500,1759,951,947,16604,-764,-2812,-1456,259,823
760510,1759,947,947,16496,-660,-2984,-1424,79,617
760520,1755,965,943,16544,-508,-2932,-1456,-142,501
760530,1762,965,939,16732,-504,-2788,-1456,-132,436
760540,1757,995,935,16996,-164,-2772,-1440,-20,481
760550,1751,1014,935,16768,220,-2672,-1456,208,820
760560,1757,978,938,16644,440,-2668,-1456,229,1073
760570,1759,983,940,16468,428,-2868,-1440,-70,1014
760580,1749,985,939,16408,608,-2640,-1456,-347,742
760590,1756,1005,937,16524,588,-2320,-1472,-417,516
760600,1719,999,932,16592,676,-2144,-1456,-233,427
760610,1757,1003,937,16748,704,-2048,-1456,-4,526
760620,1757,999,937,16720,832,-1972,-1472,135,563
760630,1759,997,941,16636,1080,-2144,-1440,196,628
760640,1759,997,934,16496,1116,-2788,-1440,73,445
760650,1765,999,935,16564,944,-2436,-1456,-190,136
760660,1756,987,939,16688,956,-2584,-1456,-278,74
760670,1757,973,938,16628,832,-2792,-1440,-218,196
760680,1757,987,937,16616,840,-2644,-1408,-132,347
760690,1759,987,938,16616,812,-2660,-1440,-213,471
760700,1757,1001,939,16608,700,-2712,-1472,-616,505
760710,1757,973,941,16480,404,-2596,-1456,-1037,341
760720,1757,979,942,16620,-80,-2440,-1440,-1163,76
760730,1756,982,939,16712,-404,-2056,-1440,-857,-107
760740,1757,969,939,16800,-660,-2392,-1472,-581,24
760750,1749,973,939,16780,-576,-2548,-1440,-298,179
760760,1757,981,937,16680,-556,-2604,-1440,5,289
760770,1759,978,939,16584,-592,-2464,-1472,-24,368
760780,1763,969,939,16420,-556,-3004,-1440,-244,337
760790,1757,971,938,16304,-664,-3076,-1456,-564,182
760800,1775,972,938,16596,-744,-2756,-1440,-683,21
760810,1759,968,937,16580,-800,-2516,-1440,-444,65
760820,1756,974,938,16812,-628,-2356,-1408,-61,275
760830,1758,969,928,16804,-560,-2476,-1440,257,478
760840,1758,973,937,16648,-424,-2488,-1456,257,408
760850,1757,980,939,16584,-360,-2472,-1440,25,390
760860,1752,967,938,16580,-280,-2408,-1440,-61,157
760870,1757,980,939,16632,-364,-2444,-1408,58,-81
760880,1756,979,936,16768,-84,-2384,-1472,461,-17
760890,1757,979,939,16880,320,-2588,-1456,880,234
760900,1757,985,972,16884,400,-2800,-1440,660,418
760910,1758,975,938,16680,480,-2888,-1440,-31,392
760920,1758,985,935,16468,352,-2664,-1456,-456,254
760930,1757,979,933,16516,56,-2652,-1440,-559,-57
760940,1756,987,934,16604,-96,-2432,-1456,-432,-244
760950,1763,1000,937,16740,-68,-2456,-1440,-180,-108
760960,1755,997,935,16784,-232,-2220,-1440,117,107
760970,1758,981,937,16776,-276,-2444,-1424,219,165
760980,1756,966,937,16608,-116,-2332,-1424,226,37
760990,1758,965,938,16536,-312,-2500,-1424,254,-12
761000,1757,957,936,16604,-332,-2876,-1440,29,-106
761010,1783,970,936,16588,-384,-2588,-1440,-189,-179
761020,1757,982,933,16648,-368,-2836,-1456,-153,-168
761030,1757,994,933,16680,-44,-2688,-1456,200,-93
761040,1756,996,934,16760,236,-2872,-1424,314,79
761050,1758,995,935,16828,460,-2884,-1456,24,223
761060,1752,990,935,16684,460,-2936,-1440,-540,154
761070,1757,985,957,16552,128,-3036,-1456,-1171,-90
761080,1757,975,934,16472,-428,-2944,-1424,-1325,-215
761090,1757,981,933,16524,-676,-2996,-1440,-1006,-270
761100,1757,970,935,16700,-832,-2996,-1424,-606,-144
761110,1757,968,938,16832,-1004,-2956,-1424,-401,74
761120,1755,984,935,16780,-1192,-3032,-1424,-506,203
761130,1757,984,938,16668,-1372,-2816,-1456,-478,228
761140,1756,914,939,16648,-1576,-2824,-1472,-257,137
761150,1757,958,939,16472,-1644,-3040,-1424,-31,118
761160,1757,956,951,16640,-1692,-2960,-1424,163,90
761170,1756,971,931,16672,-1468,-2816,-1472,326,207
761180,1756,959,935,16664,-1128,-2864,-1456,601,327
761190,1757,982,921,16644,-1084,-2828,-1408,1025,345
761200,1755,985,937,16664,-552,-2792,-1440,1193,388
761210,1757,959,936,16616,-268,-2936,-1472,1193,402
761220,1757,989,967,16692,24,-2988,-1408,1051,291
761230,1789,995,935,16664,540,-2656,-1408,1053,299
761240,1757,987,935,16824,916,-2640,-1440,997,291
761250,1757,983,935,16696,1052,-2852,-1440,627,446
761260,1757,963,934,16688,1224,-2516,-1440,217,531
761270,1756,971,934,16524,956,-2648,-1472,-73,439
761280,1757,965,936,16500,744,-2776,-1440,-457,268
761290,1757,957,935,16552,424,-2384,-1408,-472,81
761300,1757,971,931,16552,220,-2368,-1424,-115,18
761310,1775,970,933,16788,244,-2396,-1424,315,147
761320,1757,972,933,16748,328,-2600,-1440,526,322
761330,1755,999,935,16600,324,-2976,-1440,290,409
761340,1755,991,934,16504,360,-2712,-1408,-110,272
761350,1753,989,935,16528,88,-2860,-1440,-367,66
761360,1757,987,935,16516,16,-2576,-1456,-422,-5
761370,1755,985,933,16772,12,-2428,-1440,-189,80
761380,1757,980,937,16844,-16,-2492,-1472,101,230
761390,1757,982,956,16724,24,-2644,-1472,-2,400
761400,1756,981,932,16564,308,-2704,-1440,-208,411
761410,1757,973,935,16560,172,-2948,-1456,-372,209
761420,1757,986,933,16680,-52,-2976,-1440,-491,43
761430,1756,983,933,16664,-20,-2772,-1440,-544,118
761440,1757,979,941,16668,-108,-2836,-1456,-372,238
761450,1757,979,931,16744,-152,-2716,-1472,-175,342
761460,1755,980,933,16616,-76,-2728,-1408,-29,480
761470,1755,974,934,16488,-60,-2708,-1472,-28,499
761480,1756,984,933,16488,-128,-2560,-1440,-155,303
761490,1756,984,932,16604,-128,-2588,-1424,-307,164
761500,1756,982,925,16668,48,-2452,-1440,-151,146
761510,1757,984,933,16800,196,-2568,-1440,25,155
761520,1736,984,932,16860,-56,-2788,-1472,-77,209
761530,1739,965,933,16700,-8,-2736,-1440,-213,287
761540,1757,971,933,16628,36,-2696,-1424,-8,303
761550,1756,973,931,16504,28,-2764,-1440,164,209
761560,1758,978,933,16680,-20,-2836,-1440,-21,247
761570,1757,982,933,16644,104,-2860,-1424,-270,320
761580,1757,989,933,16656,36,-2804,-1408,-322,307
761590,1757,973,933,16696,-76,-2708,-1440,-377,359
761600,1756,973,935,16660,-192,-2668,-1440,-344,323
761610,1757,972,933,16688,-324,-2668,-1472,-286,258
761620,1757,966,885,16584,-352,-2528,-1456,-117,320
761630,1756,985,928,16732,-152,-2612,-1408,124,346
761640,1756,995,928,16716,-156,-2664,-1440,152,396
761650,1759,975,933,16672,-116,-2816,-1440,-18,333
761660,1756,973,933,16604,-44,-2620,-1472,-191,427
761670,1756,959,936,16636,-92,-2748,-1424,-302,344
761680,1759,955,932,16596,-304,-2632,-1472,-433,257
761690,1763,964,933,16588,-472,-2632,-1440,-400,251
761700,1757,989,937,16760,-456,-2496,-1424,-158,310
761710,1755,990,933,16860,-272,-2412,-1472,199,304
761720,1757,985,933,16708,20,-2576,-1424,382,378
761730,1757,982,933,16676,192,-2812,-1440,195,478
761740,1756,979,932,16580,224,-2836,-1472,-257,442
761750,1757,977,931,16592,-24,-2736,-1456,-553,306
761760,1755,971,933,16540,-212,-2580,-1424,-640,193
761770,1756,978,931,16644,-404,-2400,-1424,-470,165
761780,1757,959,933,16668,-384,-2232,-1440,-232,272
761790,1753,967,931,16692,-264,-2492,-1440,65,329
761800,1757,971,927,16800,-76,-2452,-1424,197,336
761810,1758,975,933,16640,-40,-2532,-1456,154,319
761820,1763,973,932,16636,44,-2632,-1456,35,283
761830,1749,984,931,16564,-72,-2572,-1424,-62,172
761840,1757,981,932,16680,-80,-2584,-1472,-107,218
761850,1755,974,931,16632,-44,-2768,-1456,-56,198
761860,1757,994,924,16780,-140,-2460,-1456,11,171
761870,1751,999,928,16804,-80,-2268,-1408,71,297
761880,1757,988,927,16760,168,-2600,-1488,167,375
761890,1757,995,927,16576,60,-2604,-1456,258,236
761900,1757,996,931,16632,4,-2364,-1456,212,135
761910,1753,975,927,16748,24,-2464,-1456,74,165
761920,1756,977,931,16640,24,-2860,-1472,-50,140
761930,1755,969,927,16676,-68,-2636,-1456,-95,73
761940,1755,981,927,16608,-252,-2500,-1424,-90,138
761950,1757,967,931,16716,-288,-2528,-1440,-172,214
761960,1755,979,932,16664,-464,-2560,-1424,-104,141
761970,1759,974,932,16592,-552,-2468,-1440,6,38
761980,1759,981,928,16680,-516,-2540,-1456,-19,22
761990,1757,973,884,16700,-648,-2588,-1424,-111,109
762000,1755,989,925,16480,-532,-2576,-1440,76,101
762010,1737,972,931,16604,-620,-2948,-1424,94,64
762020,1755,987,951,16728,-600,-2804,-1424,-40,47
762030,1757,967,928,16848,-336,-2760,-1456,-66,151
762040,1755,969,932,16680,-352,-2796,-1456,87,194
762050,1755,969,928,16688,-484,-2716,-1440,-31,356
762060,1757,970,927,16636,-460,-2832,-1456,-369,349
762070,1757,973,918,16512,-560,-2608,-1424,-359,281
762080,1756,966,931,16608,-504,-2512,-1440,-183,122
762090,1756,979,925,16644,-572,-2408,-1424,-69,166
762100,1756,985,927,16764,-532,-2532,-1472,13,257
762110,1755,984,928,16728,-404,-2492,-1456,91,298
762120,1756,973,931,16652,-256,-2344,-1424,190,293
762130,1756,965,931,16496,-180,-2656,-1440,84,218
762140,1756,970,928,16532,-240,-2896,-1408,-52,75
762150,1759,981,927,16528,-252,-2772,-1440,-136,34
762160,1757,983,927,16624,-280,-2508,-1472,-152,117
762170,1757,983,927,16788,-220,-2532,-1456,-97,266
762180,1755,979,932,16680,-212,-2676,-1472,-149,295
762190,1757,985,927,16716,-324,-2556,-1440,-212,281
762200,1755,970,932,16532,-352,-2592,-1424,-251,237
762210,1757,971,928,16592,-480,-2556,-1472,-130,81
762220,1717,985,926,16724,-584,-2580,-1440,16,39
762230,1755,991,925,16776,-460,-2492,-1440,117,195
762240,1756,978,925,16716,-240,-2912,-1440,274,346
762250,1755,971,927,16580,-220,-2716,-1424,282,343
762260,1757,971,927,16552,-212,-2748,-1440,8,285
762270,1757,972,925,16568,-292,-2780,-1440,-323,196
762280,1755,973,926,16568,-388,-2768,-1440,-298,67
762290,1757,980,926,16692,-464,-2484,-1440,-177,42
762300,1755,971,927,16764,-324,-2604,-1408,-7,143
762310,1757,973,926,16664,-296,-2512,-1440,74,298
762320,1735,977,926,16668,-296,-2436,-1440,72,375
762330,1755,973,926,16448,-280,-2652,-1408,15,309
762340,1757,969,925,16404,-340,-2756,-1440,-61,93
762350,1757,973,925,16596,-336,-2560,-1456,-139,45
762360,1757,975,925,16744,-452,-2532,-1440,-100,145
762370,1757,971,925,16704,-288,-2656,-1408,-46,268
762380,1755,949,927,16768,-352,-2748,-1456,-101,305
762390,1757,971,927,16528,-392,-2600,-1440,-143,290
762400,1757,979,926,16680,-384,-2620,-1456,-64,235
762410,1753,974,925,16636,-308,-2524,-1440,90,174
762420,1754,982,925,16676,-228,-2500,-1440,145,167
762430,1756,1063,923,16776,-220,-2460,-1440,108,229
762440,1755,985,925,16776,-164,-2584,-1456,86,251
762450,1757,991,923,16724,-140,-2716,-1424,191,196
762460,1755,987,925,16696,-124,-2680,-1440,129,175
762470,1757,981,925,16696,-16,-2728,-1440,-26,301
762480,1755,971,925,16532,-164,-2588,-1424,-56,272
762490,1755,973,926,16644,-156,-2688,-1440,-7,138
762500,1756,974,925,16612,-280,-2748,-1440,-82,167
762510,1757,969,927,16724,-364,-2648,-1440,-208,209
762520,1757,973,954,16700,-260,-2588,-1408,-127,177
762530,1755,981,926,16848,-364,-2552,-1456,-60,198
762540,1756,920,927,16736,-324,-2628,-1440,-59,258
762550,1757,973,925,16652,-292,-2620,-1440,-6,239
762560,1757,979,925,16664,-224,-2684,-1408,52,187
762570,1755,985,923,16636,-268,-2696,-1440,42,179
762580,1755,983,924,16728,-252,-2640,-1456,-52,237
762590,1756,984,925,16656,-164,-2688,-1440,-82,274
762600,1756,979,924,16676,-244,-2672,-1472,-143,277
762610,1757,973,924,16584,-296,-2548,-1456,-190,244
762620,1754,974,925,16540,-412,-2604,-1440,-245,212
762630,1755,973,925,16640,-476,-2588,-1456,-225,232
762640,1756,975,925,16604,-440,-2524,-1408,-134,243
762650,1757,974,923,16696,-340,-2584,-1440,29,235
762660,1756,965,926,16612,-316,-2668,-1488,85,253
762670,1756,973,924,16700,-280,-2664,-1456,127,246
762680,1756,956,924,16632,-216,-2508,-1456,115,244
762690,1755,979,925,16724,-84,-2684,-1440,-11,282
762700,1756,985,925,16664,-200,-2532,-1440,-169,204
762710,1756,991,925,16744,-172,-2624,-1424,-175,169
762720,1755,990,923,16712,-232,-2684,-1424,-119,230
762730,1753,979,923,16640,-228,-2712,-1424,-77,328
762740,1756,987,924,16596,-148,-2612,-1456,-24,310
762750,1757,989,924,16664,-164,-2736,-1408,-100,304
762760,1755,979,923,16680,-188,-2496,-1456,-232,291
762770,1757,981,925,16596,-296,-2628,-1456,-272,197
762780,1756,991,924,16672,-372,-2408,-1472,-259,126
762790,1756,978,922,16724,-324,-2444,-1456,-147,183
762800,1756,969,925,16780,-244,-2640,-1440,48,279
762810,1755,969,925,16632,-244,-2584,-1424,141,300
762820,1755,971,967,16640,-204,-2652,-1424,50,259
762830,1756,971,921,16608,-232,-2684,-1440,-154,229
762840,1756,971,924,16628,-212,-2772,-1424,-251,211
762850,1755,973,911,16768,-308,-2644,-1424,-261,217
762860,1754,1042,924,16720,-480,-2660,-1456,-304,245
762870,1755,1001,921,16740,-384,-2384,-1392,-233,247
762880,1755,975,923,16792,-428,-2568,-1472,-54,266
762890,1755,973,923,16640,-340,-2488,-1440,-51,239
762900,1755,968,923,16632,-336,-2700,-1440,-201,279
762910,1756,987,923,16640,-336,-2700,-1440,-311,208
762920,1757,972,922,16516,-492,-2532,-1424,-207,149
762930,1757,953,923,16740,-460,-2516,-1440,-73,154
762940,1753,969,924,16740,-484,-2592,-1472,-3,239
762950,1755,859,924,16692,-476,-2432,-1440,91,303
762960,1755,967,924,16556,-460,-2636,-1408,103,290
762970,1757,975,923,16644,-292,-2576,-1424,72,224
762980,1755,981,925,16604,-300,-2616,-1408,31,154
762990,1757,987,923,16604,-220,-2844,-1440,-67,174
763000,1755,989,921,16684,-256,-2592,-1456,-126,229
763010,1772,983,923,16664,-256,-2656,-1440,-141,304
763020,1756,980,923,16748,-324,-2636,-1440,-266,297
763030,1757,973,923,16744,-364,-2468,-1440,-265,254
763040,1754,977,923,16680,-388,-2608,-1440,-216,217
763050,1755,981,921,16748,-476,-2536,-1424,-108,258
763060,1757,979,922,16680,-428,-2556,-1440,21,296
763070,1756,984,921,16748,-280,-2520,-1440,10,317
763080,1757,979,923,16652,-212,-2536,-1440,-66,353
763090,1756,969,923,16564,-332,-2512,-1408,-100,275
763100,1755,973,923,16616,-312,-2704,-1456,-131,168
763110,1767,959,924,16696,-436,-2580,-1440,-119,209
763120,1755,974,923,16652,-364,-2548,-1472,-96,250
763130,1757,971,923,16664,-384,-2524,-1392,-80,320
763140,1756,972,935,16668,-328,-2628,-1440,-19,323
763150,1755,975,923,16664,-252,-2452,-1424,-51,241
763160,1755,982,921,16632,-236,-2552,-1472,-61,225
763170,1755,981,923,16712,-176,-2676,-1440,-89,222
763180,1755,971,923,16692,-156,-2564,-1424,-88,179
763190,1756,972,921,16580,-300,-2636,-1408,-101,212
763200,1755,979,921,16600,-256,-2516,-1424,-123,226
763210,1755,971,921,16720,-320,-2640,-1472,-33,254
763220,1755,973,921,16680,-352,-2460,-1440,96,225
763230,1755,971,924,16728,-348,-2404,-1456,57,252
763240,1755,971,921,16636,-200,-2588,-1456,-39,227
763250,1755,971,921,16536,-280,-2616,-1456,0,135
763260,1757,972,922,16684,-340,-2428,-1440,-63,66
763270,1755,971,882,16828,-348,-2524,-1440,-95,230
763280,1755,971,921,16644,-352,-2720,-1424,-135,285
763290,1756,969,933,16636,-288,-2744,-1456,-46,264
763300,1755,981,920,16688,-292,-2588,-1456,56,216
763310,1756,971,921,16676,-332,-2632,-1456,40,222
763320,1755,947,921,16668,-192,-2556,-1440,21,219
763330,1754,987,922,16680,-176,-2532,-1424,47,250
763340,1755,988,921,16692,-144,-2524,-1440,-19,278
763350,1755,970,921,16616,-172,-2596,-1440,-72,255
763360,1757,982,922,16664,-160,-2516,-1456,-104,206
763370,1755,983,921,16584,-416,-2580,-1408,-173,172
763380,1757,977,947,16724,-308,-2628,-1424,-204,208
763390,1755,979,921,16640,-320,-2548,-1440,-136,222
763400,1755,975,920,16748,-372,-2528,-1440,17,221
763410,1755,971,921,16692,-436,-2632,-1440,-5,215
763420,1755,971,919,16736,-304,-2524,-1456,-122,221
763430,1783,983,919,16748,-296,-2552,-1456,-146,205
763440,1754,973,921,16740,-260,-2576,-1424,-196,185
763450,1764,994,921,16592,-344,-2472,-1440,-94,190
763460,1757,969,901,16684,-364,-2508,-1456,5,192
763470,1755,971,921,16652,-392,-2620,-1472,-22,180
763480,1755,973,921,16728,-344,-2480,-1488,-103,197
763490,1755,971,923,16708,-412,-2532,-1424,-81,239
763500,1751,971,922,16700,-356,-2612,-1440,-66,187
763510,1739,974,920,16652,-428,-2616,-1424,-134,154
763520,1755,973,920,16680,-392,-2364,-1424,-121,160
763530,1756,970,919,16728,-356,-2440,-1424,-24,153
763540,1753,969,920,16732,-368,-2636,-1408,34,175
763550,1755,969,920,16620,-388,-2572,-1456,-13,180
763560,1756,973,918,16540,-240,-2484,-1456,-1,177
763570,1756,979,919,16664,-288,-2760,-1456,11,150
763580,1755,981,919,16768,-320,-2648,-1440,17,159
763590,1749,980,921,16680,-176,-2588,-1424,-54,164
763600,1755,981,920,16716,-232,-2556,-1472,-130,213
763610,1755,979,920,16616,-260,-2552,-1424,-142,197
763620,1755,982,921,16500,-324,-2464,-1424,-116,91
763630,1755,975,909,16600,-324,-2392,-1440,-96,73
763640,1753,989,920,16692,-408,-2384,-1424,-93,123
763650,1756,979,919,16716,-420,-2444,-1488,-33,136
763660,1755,978,920,16688,-396,-2448,-1424,61,28
763670,1753,973,921,16508,-540,-2300,-1424,43,180
763680,1756,968,921,16596,-672,-1920,-1408,-12,206
763690,1755,934,920,16596,-788,-1964,-1424,56,153
763700,1753,958,918,16580,-924,-1712,-1456,490,-59
763710,1755,956,914,16608,-1024,-1692,-1408,1021,-184
763720,1769,948,917,16608,-732,-1844,-1456,1500,-311
763730,1756,935,915,16672,-432,-2132,-1408,1982,-407
763740,1709,951,918,16604,172,-2736,-1424,2312,-331
763750,1753,978,917,16684,576,-3184,-1424,2225,-122
763760,1755,995,919,16544,904,-3004,-1440,1645,96
763770,1756,994,917,16504,956,-3132,-1392,735,119
763780,1754,972,918,16556,680,-3152,-1472,-99,-185
763790,1754,999,919,16552,48,-3036,-1424,-450,-504
763800,1755,1019,914,16656,-236,-1976,-1392,149,-301
763810,1753,1006,917,16704,88,-1820,-1408,1006,294
763820,1755,967,919,16744,244,-2236,-1424,936,469
763830,1753,943,920,16512,16,-3164,-1440,24,4
763840,1756,955,918,16388,-236,-3144,-1456,-546,-606
763850,1755,979,917,16748,-484,-2860,-1456,-34,-829
763860,1755,1011,918,16888,-412,-3232,-1440,796,-478
763870,1755,1007,921,16952,-384,-3748,-1408,1015,300
763880,1756,959,920,16824,-324,-3896,-1408,446,929
763890,1751,931,922,16508,-880,-3840,-1456,-320,862
763900,1755,950,921,16372,-1256,-3848,-1456,-636,261
763910,1755,970,934,16536,-1356,-3376,-1440,-145,-76
763920,1755,975,923,16988,-1200,-3764,-1440,310,204
763930,1755,971,921,17012,-1016,-3924,-1440,248,787
763940,1751,990,920,16980,-796,-3904,-1408,-24,1400
763950,1755,973,919,16776,-808,-3748,-1440,-375,1548
763960,1737,969,920,16632,-936,-3944,-1408,-877,1205
763970,1755,967,921,16792,-1160,-3780,-1440,-1203,900
763980,1755,970,920,16848,-1380,-3212,-1456,-1169,1034
763990,1755,955,920,17116,-1276,-3092,-1440,-683,1380
764000,1755,986,921,16952,-1452,-3376,-1424,-288,1692
764010,1754,989,917,16788,-1140,-3072,-1440,-241,2031
764020,1755,971,919,16608,-1156,-2924,-1440,-272,2128
764030,1754,970,919,16360,-1292,-2916,-1456,-432,1856
764040,1755,957,918,16468,-1536,-2700,-1424,-529,1623
764050,1756,943,917,16684,-1756,-2600,-1424,-506,1646
764060,1754,936,926,16840,-1896,-2628,-1440,-190,1505
764070,1755,949,921,16868,-1948,-2568,-1440,449,1690
764080,1754,954,917,16796,-1832,-2560,-1424,1072,1938
764090,1753,954,919,16796,-1692,-2636,-1424,1167,2207
764100,1755,937,919,16632,-1856,-2836,-1424,713,2274
764110,1753,907,921,16548,-2380,-2944,-1424,-126,2142
764120,1755,893,921,16548,-3376,-2716,-1440,-1079,2012
764130,1755,863,922,16436,-4980,-2520,-1440,-1668,1923
764140,1755,837,967,16564,-6320,-2684,-1392,-1958,1902
764150,1755,805,923,16716,-7704,-3012,-1424,-2068,1534
764160,1727,837,921,16932,-8588,-3772,-1424,-1132,916
764170,1753,979,925,17820,-9268,-4568,-1408,116,160
764180,1755,1114,913,18504,-9620,-5252,-1424,1066,-698
764190,1753,1239,918,19440,-8240,-5016,-1440,1614,-467
764200,1752,1237,943,21040,-6388,-5292,-1424,738,384
764210,1756,1077,924,22920,-3580,-5128,-1424,-1394,649
764220,1757,1119,920,24712,-1448,-5148,-1408,-3676,671
764230,1751,1193,923,26600,-1200,-6960,-1440,-7581,110
764240,1748,1507,917,27008,-3160,-7584,-1408,-12252,820
764250,1757,1448,907,28216,-4136,-1364,-1472,-16060,4325
764260,1757,1091,914,27636,-4848,3336,-1472,-14856,9287
764270,1743,671,919,26016,-3276,2452,-1408,-8467,11127
764280,1755,620,888,23472,-1696,736,-1472,-733,8087
764290,1759,136,863,22188,2888,-2460,-1408,5724,2563
764300,1751,920,879,22080,4164,-6848,-1408,5672,-3859
764310,1753,984,858,24936,8604,-5388,-1424,732,-6580
764320,1754,1002,889,28532,12384,-3364,-1440,-6704,-5926
764330,1752,1011,934,25608,12596,-4292,-1456,-13665,-2945
764340,1749,1011,941,24384,12016,-3540,-1424,-19126,836
764350,1747,1016,921,22624,8380,-1348,-1440,-22113,3125
764360,1752,1011,924,22132,6452,868,-1424,-22512,3901
764370,1754,1013,915,21128,4900,2812,-1424,-20069,3189
764380,1755,1015,917,20016,3328,3740,-1456,-15389,2429
764390,1755,1012,921,18336,2104,4544,-1456,-9541,2451
764400,1753,1011,918,16416,2320,5284,-1472,-3125,4030
764410,1753,1013,913,14068,2908,5208,-1424,3421,6095
764420,1753,1012,905,12256,4604,4012,-1456,9763,7863
764430,1752,1010,909,11036,5828,1588,-1440,13437,7454
764440,1755,1007,910,9944,6840,308,-1424,13822,6001
764450,1737,1000,909,9264,7884,-960,-1440,11826,4553
764460,1752,1007,919,8576,8708,-1400,-1408,8971,3782
764470,1755,1007,917,7988,7988,-776,-1408,7042,3069
764480,1741,1007,921,7964,7308,84,-1472,6327,2718
764490,1755,1015,921,7160,6256,604,-1424,5774,3678
764500,1757,1007,915,6028,6304,1252,-1440,5039,5195
764510,1756,1007,913,5080,6836,1068,-1440,3675,6257
764520,1753,1007,915,4076,6560,692,-1440,2432,6784
764530,1753,1008,918,3380,5868,960,-1440,1203,6191
764540,1753,1007,916,2840,4840,1828,-1408,457,5222
764550,1751,1007,913,2668,3952,2420,-1408,821,3987
764560,1753,1007,914,2968,3632,2988,-1440,2192,2564
764570,1753,1005,914,3432,3352,2944,-1424,3900,1436
764580,1753,1005,914,3884,3180,1640,-1408,5297,634
764590,1752,994,919,4792,3208,2312,-1440,6605,-74
764600,1753,1006,909,4672,3404,2716,-1408,7121,50
764610,1753,1005,911,4936,4000,2504,-1408,7890,126
764620,1754,1007,915,5680,4104,1176,-1424,8623,-929
764630,1755,1007,917,6728,4604,524,-1440,8761,-2854
764640,1755,1006,917,7792,5304,716,-1440,8895,-4810
764650,1757,997,917,9152,5668,60,-1408,8706,-6514
764660,1756,1005,909,10732,5820,-1532,-1440,7545,-8149
764670,1757,1001,915,12084,5148,-2384,-1424,5634,-8969
764680,1747,1004,917,13560,4788,-2120,-1440,3522,-8646
764690,1756,1005,917,15020,4644,-1016,-1440,2639,-7385
764700,1755,1005,918,16072,4232,-428,-1424,3473,-5772
764710,1755,1003,920,16780,3604,-796,-1408,4769,-4238
764720,1756,1003,915,17028,3452,-548,-1424,6048,-2756
764730,1761,999,915,17056,3500,-1144,-1456,6989,-1571
764740,1758,1014,915,16340,3412,-3004,-1440,7552,-1532
764750,1756,1004,911,16212,3688,-4004,-1456,7862,-2272
764760,1755,1005,910,16092,3496,-4856,-1424,7402,-2977
764770,1753,1010,904,15368,3416,-4732,-1424,6344,-2462
764780,1740,1004,928,18152,3772,-3248,-1456,5265,-751
764790,1771,997,907,32767,6856,-5524,-1408,4568,-6546
764800,1757,1016,877,32767,3752,-21840,-1472,38,-32768
764810,1749,1001,883,32767,-10348,-19532,-1440,-18630,-32768
764820,1741,997,918,28592,-9444,5528,-1424,-32768,-10495
764830,1749,1023,894,19368,-2480,22968,-1456,-20862,29910
764840,1767,1017,883,13104,1596,13372,-1440,6047,32767
764850,1754,1016,942,-172,832,336,-1440,25715,32767
764860,1763,1013,917,2876,-224,-1228,-1440,29968,32767
764870,1743,1003,893,11520,1452,600,-1440,16883,24620
764880,1757,1002,909,19372,2620,-6904,-1424,114,2221
764890,1759,987,917,14084,4892,-2676,-1440,-12440,-24075
764900,1749,1054,878,13460,7836,-3648,-1472,-9506,-32616
764910,1747,1000,901,27236,3584,13008,-1408,-6716,-32768
764920,1764,996,927,21356,5132,1948,-1472,1270,-32150
764930,1763,1001,920,24088,5224,-3280,-1456,5094,-21746
764940,1751,1003,911,25592,5896,-6356,-1456,2767,-6303
764950,1776,1002,909,24604,9232,-2604,-1424,233,6887
764960,1762,1006,910,19212,8972,-4708,-1424,-240,14134
764970,1748,1007,909,12676,7060,-4580,-1440,-575,16156
764980,1762,1003,939,12784,7816,-2460,-1424,-1002,14247
764990,1757,1003,905,12524,6376,-3108,-1456,-1467,5816
765000,1755,1003,885,12616,7692,452,-1472,-1349,-3616
765010,1755,1001,917,14896,9236,-728,-1456,1579,-12071
765020,1758,1003,913,16000,8352,-5236,-1408,2469,-16953
765030,1753,1002,917,17568,7140,-5744,-1456,156,-16790
765040,1755,1001,917,19468,7832,-4020,-1456,-1369,-11720
765050,1755,1000,914,19712,7012,-3372,-1440,216,-5231
765060,1752,1001,921,19548,5976,-3708,-1456,2278,69
765070,1764,1001,915,17620,5384,-3524,-1440,3383,3029
765080,1755,989,906,16072,5776,-4388,-1408,3889,3258
765090,1755,990,906,14568,5948,-6444,-1424,3867,988
765100,1753,1000,907,14556,6048,-7260,-1408,2523,-2154
765110,1755,1000,919,15744,6056,-6824,-1440,14,-4043
765120,1753,1001,917,16532,4656,-5792,-1440,-2118,-4271
765130,1753,999,915,17172,3428,-4348,-1440,-1660,-3222
765140,1753,1001,911,17520,2696,-4524,-1456,102,-2020
765150,1747,999,904,17348,1956,-4136,-1472,1999,-864
765160,1753,1000,907,17076,2020,-3988,-1424,3510,120
765170,1753,1001,905,16732,2864,-3612,-1440,4123,616
765180,1749,999,909,16368,3644,-3340,-1440,4003,729
765190,1753,1001,909,16060,3864,-3840,-1456,3031,315
765200,1753,1001,914,16052,3856,-3688,-1424,1456,-295
765210,1753,1000,915,16224,3308,-3724,-1424,-299,-884
765220,1775,997,895,16268,2156,-3444,-1424,-2007,-1252
765230,1757,999,911,16192,1108,-2788,-1408,-3128,-1218
765240,1755,1001,911,16272,428,-2408,-1456,-3099,-1032
765250,1755,998,907,16172,376,-2456,-1424,-2667,-902
765260,1755,997,907,16024,652,-3036,-1424,-1968,-990
765270,1755,999,901,16064,788,-3844,-1456,-1578,-1338
765280,1755,998,907,15968,984,-4832,-1440,-2229,-1335
765290,1753,1047,909,16088,608,-5000,-1456,-3896,-977
765300,1753,997,909,16456,188,-4420,-1440,-5637,-433
765310,1757,999,914,16088,-752,-3660,-1424,-6303,259
765320,1757,997,921,15800,-1308,-4524,-1424,-5952,639
765330,1755,999,879,15128,-2252,-5200,-1440,-5410,673
765340,1757,1043,891,15000,-2548,-5404,-1440,-3950,180
765350,1747,1047,905,15524,-2464,-4672,-1440,-2140,-592
765360,1753,1012,909,16068,-2220,-4232,-1440,-540,-749
765370,1756,999,905,16428,-1444,-4284,-1424,645,-361
765380,1755,999,909,16596,-1308,-5004,-1408,732,236
765390,1757,1008,911,16324,-820,-4708,-1440,755,704
765400,1755,999,909,16204,-568,-4760,-1408,1239,893
765410,1753,998,910,16148,-652,-5400,-1440,1197,452
765420,1752,990,908,16436,-420,-4724,-1456,668,235
765430,1753,998,915,16536,-764,-4292,-1440,118,486
765440,1755,994,915,16480,-732,-4148,-1440,-58,919
765450,1754,996,910,16380,-968,-4392,-1440,145,1192
765460,1755,997,906,16156,-1148,-4716,-1440,783,1125
765470,1751,997,903,16328,-1048,-4872,-1408,1807,872
765480,1752,998,905,16580,-812,-4560,-1440,2723,455
765490,1757,988,907,16908,-40,-3976,-1408,3317,439
765500,1753,1081,914,16932,788,-3992,-1440,3419,941
765510,1754,996,909,16692,1328,-4372,-1472,3424,1511
765520,1757,997,904,16776,1408,-4964,-1440,2877,1605
765530,1755,999,904,16892,1596,-4796,-1472,1986,1170
765540,1753,995,909,17148,1344,-3788,-1440,1019,869
765550,1753,995,915,17516,1444,-3792,-1456,100,718
765560,1754,995,909,17448,1272,-4204,-1440,-447,627
765570,1753,997,908,17252,1312,-4332,-1424,-390,814
765580,1753,999,905,17040,1652,-4224,-1472,207,1233
765590,1755,995,891,16836,2028,-3772,-1440,936,1900
765600,1753,997,895,16520,2008,-3396,-1456,1495,2674
765610,1753,1001,905,16472,2216,-3364,-1488,1429,2569
765620,1753,999,908,16780,2196,-2812,-1392,642,1879
765630,1754,1002,907,17056,2120,-2932,-1440,-638,969
765640,1764,1014,907,17084,1708,-3744,-1440,-2314,257
765650,1756,1044,905,16972,1096,-3700,-1424,-3708,-29
765660,1752,1095,906,17072,464,-3328,-1424,-4356,268
765670,1755,1135,910,16800,-140,-3392,-1456,-4418,982
765680,1753,1142,946,16192,-880,-3636,-1456,-4354,1634
765690,1755,1085,918,15736,-1556,-3864,-1408,-4574,1918
765700,1755,1037,917,15160,-2492,-4040,-1424,-5326,1800
765710,1757,953,916,14880,-3196,-3892,-1424,-6017,1660
765720,1755,936,917,14636,-3640,-3344,-1408,-6038,1384
765730,1747,967,914,14772,-3528,-3192,-1424,-5001,941
765740,1753,933,913,15044,-3192,-2852,-1440,-3047,608
765750,1753,938,909,15384,-2544,-2756,-1440,-1139,607
765760,1752,942,906,15668,-1988,-2828,-1440,-162,818
765770,1753,935,907,16164,-1248,-2656,-1440,157,838
765780,1771,938,906,16476,-652,-2600,-1424,272,708
765790,1753,891,952,16540,-296,-2628,-1440,131,650
765800,1755,852,913,16736,-348,-2528,-1408,-133,427
765810,1753,895,913,16808,-696,-2628,-1456,-833,468
765820,1755,860,909,16888,-916,-2368,-1440,-1273,620
765830,1747,826,906,16664,-532,-2884,-1440,-844,431
765840,1753,860,905,17032,-120,-3684,-1440,-156,170
765850,1753,910,903,17244,756,-3796,-1408,329,173
765860,1753,969,904,17324,1100,-4064,-1424,184,460
765870,1755,1045,905,16932,1612,-4152,-1440,-458,1204
765880,1751,1085,907,16532,1528,-4172,-1440,-1790,1962
765890,1753,1087,907,15988,544,-4004,-1440,-3349,1909
765900,1753,1083,906,15788,-612,-3392,-1440,-4555,1107
765910,1755,1069,907,15864,-1680,-2720,-1424,-4683,24
765920,1753,1049,905,16380,-2404,-2128,-1424,-3755,-649
765930,1755,1015,915,16720,-2812,-1780,-1456,-2411,-666
765940,1753,979,911,17080,-2740,-1996,-1424,-699,-310
765950,1733,1015,913,17064,-2408,-2172,-1440,902,96
765960,1755,973,909,16820,-1788,-3308,-1424,1629,573
765970,1753,979,908,16428,-1128,-3900,-1424,1637,664
765980,1753,1015,909,16140,-532,-4176,-1424,1290,398
765990,1753,1048,907,16200,-408,-4168,-1392,600,206
766000,1752,1056,905,16296,68,-4240,-1440,-333,224
766010,1752,1048,907,16468,-88,-4056,-1424,-1182,406
766020,1756,1023,909,16536,-540,-3616,-1440,-1947,423
766030,1754,922,910,16592,-1140,-2812,-1408,-2126,314
766040,1755,1003,908,16652,-1296,-2256,-1392,-1622,312
766050,1753,959,907,16580,-1332,-2216,-1408,-641,381
766060,1754,947,908,16620,-1120,-2420,-1424,164,378
766070,1752,981,907,16492,-960,-2896,-1456,472,429
766080,1753,979,907,16528,-772,-2792,-1440,533,36
766090,1755,983,906,16524,-688,-3176,-1424,538,-38
766100,1753,978,905,16612,-220,-3368,-1440,529,-134
766110,1753,998,908,16700,140,-2896,-1424,854,-58
766120,1754,980,907,16732,280,-3376,-1424,740,162
766130,1753,1007,906,16760,172,-3640,-1440,-79,273
766140,1753,1013,907,16660,40,-3204,-1440,-711,170
766150,1753,989,923,16604,-176,-2948,-1440,-691,-75
766160,1755,983,861,16584,-544,-3324,-1424,-589,-248
766170,1755,989,905,16540,-792,-3304,-1424,-581,-73
766180,1753,994,907,16588,-928,-3156,-1408,-455,54
766190,1753,999,907,16408,-876,-3320,-1440,-198,126
766200,1755,1007,906,16420,-940,-3412,-1408,-26,104
766210,1753,1001,907,16488,-832,-3380,-1408,-34,44
766220,1754,1000,907,16484,-876,-3348,-1424,-221,-10
766230,1752,995,905,16600,-872,-3384,-1408,-183,-20
766240,1753,986,907,16660,-880,-3112,-1440,8,86
766250,1753,981,907,16632,-736,-3192,-1424,160,238
766260,1754,979,906,16500,-496,-3180,-1408,104,320
766270,1753,967,907,16400,-504,-3292,-1440,-182,294
766280,1753,973,908,16404,-588,-3332,-1408,-421,146
766290,1753,969,905,16444,-588,-3224,-1440,-311,-103
766300,1755,981,905,16584,-576,-3020,-1424,60,-161
766310,1754,987,905,16756,-500,-3096,-1408,378,85
766320,1753,987,905,16648,-256,-3120,-1440,564,376
766330,1753,985,906,16524,-28,-3108,-1424,386,382
766340,1753,983,905,16480,-80,-3168,-1408,75,224
766350,1755,984,905,16372,-156,-3444,-1424,-242,-1
766360,1753,990,905,16408,-320,-3220,-1408,-434,-240
766370,1755,996,905,16480,-456,-3008,-1440,-387,-268
766380,1749,989,903,16584,-628,-2912,-1424,-145,-73
766390,1752,983,905,16536,-640,-2992,-1440,19,132
766400,1756,980,905,16464,-692,-3124,-1456,-70,133
766410,1753,971,904,16372,-656,-2848,-1440,-194,8
766420,1747,973,906,16340,-864,-3240,-1440,-258,-218
766430,1753,965,909,16344,-1000,-3452,-1424,-101,-464
766440,1753,990,907,16584,-1072,-3472,-1424,239,-410
766450,1751,1012,905,16572,-844,-3176,-1424,633,-87
766460,1753,995,905,16652,-508,-3124,-1424,972,181
766470,1755,971,907,16380,-428,-3480,-1408,791,142
766480,1753,982,909,16312,-416,-3736,-1456,320,204
766490,1754,982,906,16412,-472,-3496,-1424,95,-204
766500,1753,954,905,16488,-640,-3664,-1456,204,-391
766510,1751,1015,895,16584,-920,-3624,-1424,409,-305
766520,1753,1033,904,16716,-576,-3268,-1408,876,-1
766530,1753,947,905,16624,-432,-3528,-1424,1013,298
766540,1753,861,907,16392,-504,-3652,-1424,635,364
766550,1753,932,906,16412,-736,-3784,-1408,74,157
766560,1753,941,905,16464,-912,-3656,-1424,-162,-147
766570,1753,1013,905,16528,-900,-3576,-1424,119,-276
766580,1753,1043,905,16680,-812,-3632,-1424,571,-161
766590,1749,1075,905,16800,-484,-3368,-1392,812,262
766600,1775,1036,909,16652,-292,-3520,-1440,568,596
766610,1727,1012,906,16376,-204,-3596,-1424,-9,550
766620,1754,994,907,16212,-620,-3576,-1424,-482,107
766630,1753,937,903,16380,-796,-3588,-1424,-586,-348
766640,1753,947,905,16672,-836,-3348,-1424,-273,-402
766650,1752,995,905,16832,-860,-3300,-1408,191,4
766660,1753,1003,904,16732,-496,-3492,-1424,560,517
766670,1753,1001,905,16524,-248,-3588,-1408,436,740
766680,1753,999,904,16304,-280,-3712,-1408,-64,469
766690,1753,996,905,16232,-384,-3584,-1392,-463,-44
766700,1751,991,902,16508,-444,-3508,-1408,-537,-376
766710,1755,1001,896,16664,-504,-3316,-1440,-358,-290
766720,1752,994,904,16932,-576,-3236,-1440,-35,84
766730,1754,1005,917,16664,-356,-3284,-1440,297,453
766740,1753,979,903,16472,-220,-3680,-1408,370,536
766750,1753,1001,903,16236,-208,-3684,-1408,111,299
766760,1749,967,903,16324,-396,-3368,-1440,-406,1
766770,1753,1033,905,16408,-648,-3236,-1408,-709,-178
766780,1751,1035,895,16572,-1056,-3380,-1408,-654,-214
766790,1754,982,903,16672,-940,-3108,-1392,-263,24
766800,1754,981,905,16728,-1048,-3216,-1408,293,357
766810,1741,982,905,16588,-1024,-3452,-1408,285,472
766820,1752,979,905,16416,-920,-3552,-1392,6,297
766830,1752,981,904,16372,-920,-3428,-1440,-73,-2
766840,1751,903,902,16628,-924,-3520,-1376,-16,-189
766850,1753,987,903,16600,-876,-3560,-1408,129,-88
766860,1770,985,904,16720,-480,-3424,-1408,309,227
766870,1752,958,902,16724,-452,-3484,-1440,253,536
766880,1753,949,903,16420,-464,-3560,-1408,-41,432
766890,1753,955,903,16448,-508,-3716,-1440,-379,324
766900,1752,940,902,16364,-680,-3528,-1408,-518,-104
766910,1753,927,904,16584,-800,-3288,-1440,-335,-152
766920,1752,950,888,16692,-804,-3304,-1424,27,95
766930,1754,973,903,16700,-624,-3488,-1408,303,424
766940,1753,982,907,16572,-544,-3388,-1440,281,538
766950,1751,998,903,16344,-480,-3596,-1440,61,354
766960,1755,1010,903,16332,-584,-3476,-1408,-180,97
766970,1745,1023,904,16516,-620,-3508,-1424,-278,-64
766980,1753,1021,903,16536,-592,-3392,-1440,-239,0
766990,1753,1013,903,16636,-780,-3416,-1408,-127,168
767000,1753,1001,903,16612,-656,-3344,-1408,87,366
767010,1753,969,903,16440,-552,-3604,-1376,192,400
767020,1753,966,903,16420,-652,-3544,-1424,-13,258
767030,1753,978,903,16416,-716,-3468,-1408,-226,118
767040,1753,986,902,16508,-656,-3412,-1408,-322,22
767050,1753,1001,903,16644,-724,-3508,-1456,-207,44
767060,1753,1003,905,16564,-732,-3324,-1440,41,190
767070,1743,991,903,16620,-612,-3372,-1424,229,371
767080,1753,909,904,16460,-540,-3520,-1408,74,405
767090,1753,907,904,16316,-596,-3624,-1440,-144,285
767100,1753,939,904,16384,-728,-3584,-1456,-312,107
767110,1752,969,902,16560,-776,-3380,-1392,-231,77
767120,1753,1013,904,16592,-852,-3548,-1424,-47,128
767130,1753,1015,901,16664,-772,-3532,-1408,112,298
767140,1733,1023,902,16576,-656,-3488,-1408,110,427
767150,1753,1017,904,16468,-628,-3596,-1392,-55,410
767160,1755,1005,903,16392,-744,-3368,-1392,-157,241
767170,1779,986,903,16484,-744,-3652,-1392,-227,115
767180,1753,975,903,16440,-880,-3524,-1424,-226,85
767190,1753,980,903,16600,-880,-3440,-1408,-58,183
767200,1755,987,901,16672,-792,-3624,-1424,135,299
767210,1754,981,903,16508,-728,-3608,-1424,182,388
767220,1753,953,903,16356,-744,-3616,-1440,124,347
767230,1755,974,903,16448,-608,-3504,-1392,6,295
767240,1754,984,904,16460,-644,-3440,-1424,-92,230
767250,1753,991,902,16448,-752,-3556,-1392,-132,211
767260,1752,991,902,16592,-684,-3244,-1392,-63,292
767270,1753,971,895,16660,-632,-3296,-1440,51,334
767280,1753,972,903,16556,-572,-3568,-1424,-11,316
767290,1753,950,901,16528,-592,-3548,-1424,-124,325
767300,1753,960,901,16420,-636,-3500,-1392,-213,263
767310,1752,989,896,16540,-612,-3412,-1424,-161,228
767320,1751,998,895,16376,-588,-3376,-1408,-41,212
767330,1753,1017,895,16560,-652,-3372,-1424,39,290
767340,1753,985,895,16576,-628,-3436,-1424,-95,305
767350,1753,995,902,16444,-684,-3220,-1376,-104,306
767360,1737,1001,902,16536,-524,-3348,-1424,38,256
767370,1753,991,902,16480,-604,-3516,-1408,58,223
767380,1749,985,901,16604,-544,-3384,-1392,-13,243
767390,1753,946,901,16560,-640,-3344,-1424,-72,287
767400,1755,983,902,16520,-660,-3460,-1408,-97,287
767410,1751,971,901,16488,-732,-3672,-1424,-143,274
767420,1752,968,903,16520,-712,-3364,-1408,-158,259
767430,1753,959,900,16472,-732,-3200,-1392,-260,318
767440,1755,978,903,16504,-812,-3476,-1424,-304,286
767450,1752,981,877,16408,-960,-3412,-1408,-249,210
767460,1751,987,902,16496,-972,-3260,-1408,-86,200
767470,1754,995,893,16552,-820,-3388,-1408,49,266
767480,1753,977,901,16608,-696,-3348,-1424,116,335
767490,1752,975,896,16608,-572,-3424,-1424,75,363
767500,1752,966,901,16516,-520,-3636,-1408,-98,359
767510,1753,969,896,16504,-688,-3428,-1440,-326,286
767520,1746,978,909,16500,-724,-3328,-1408,-375,193
767530,1753,984,902,16492,-792,-3412,-1408,-283,180
767540,1753,969,869,16520,-944,-3312,-1408,-130,285
767550,1753,959,895,16636,-764,-3340,-1408,53,358
767560,1753,983,901,16556,-772,-3388,-1376,73,385
767570,1739,1000,902,16468,-716,-3216,-1376,-47,312
767580,1752,988,896,16448,-772,-3240,-1440,-129,183
767590,1747,989,895,16524,-804,-3396,-1424,-123,157
767600,1753,989,896,16556,-656,-3368,-1408,43,168
767610,1753,975,896,16532,-680,-3412,-1440,166,240
767620,1755,947,901,16500,-600,-3416,-1424,193,360
767630,1753,978,902,16560,-616,-3564,-1440,60,406
767640,1753,987,900,16324,-632,-3352,-1408,-112,336
767650,1784,986,895,16400,-640,-3360,-1408,-145,202
767660,1753,983,896,16528,-696,-3548,-1440,-180,161
767670,1751,981,901,16608,-748,-3328,-1392,-161,240
767680,1753,984,901,16656,-800,-3352,-1408,-71,385
767690,1755,989,895,16576,-828,-3428,-1440,-26,302
767700,1753,986,894,16516,-728,-3436,-1440,-10,371
767710,1767,986,895,16456,-696,-3188,-1408,-1,270
767720,1753,981,895,16568,-572,-3388,-1376,-77,267
767730,1753,983,901,16564,-496,-3372,-1408,-112,279
767740,1753,989,895,16508,-572,-3428,-1408,-158,278
767750,1752,997,895,16576,-528,-3476,-1408,-169,309
767760,1753,1002,895,16480,-596,-3312,-1408,-160,297
767770,1753,997,894,16580,-584,-3288,-1424,-116,304
767780,1752,988,895,16568,-448,-3268,-1408,-68,305
767790,1741,978,895,16568,-388,-3408,-1408,-85,337
767800,1752,966,895,16464,-312,-3368,-1392,-152,340
767810,1753,975,896,16520,-412,-3204,-1440,-242,310
767820,1751,980,894,16456,-536,-3452,-1392,-343,262
767830,1752,986,895,16548,-604,-3284,-1424,-388,212
767840,1752,987,901,16536,-760,-3164,-1392,-255,234
767850,1755,975,895,16572,-756,-3256,-1376,-108,258
767860,1753,973,901,16644,-564,-3440,-1440,-20,301
767870,1755,927,895,16440,-588,-3244,-1424,-3,299
767880,1753,965,895,16488,-644,-3108,-1424,-47,243
767890,1751,943,895,16484,-572,-3360,-1376,-89,206
767900,1753,967,894,16472,-648,-3308,-1424,-101,175
767910,1752,981,900,16468,-540,-3352,-1408,-103,235
767920,1753,990,895,16480,-704,-3408,-1424,-76,308
767930,1753,973,895,16504,-792,-3416,-1424,-106,311
767940,1753,893,895,16532,-728,-3268,-1376,-71,306
767950,1753,893,900,16528,-796,-3276,-1392,7,296
767960,1753,973,895,16616,-900,-3300,-1424,-16,232
767970,1753,959,917,16484,-764,-3244,-1392,92,286
767980,1753,996,895,16568,-840,-3304,-1392,198,290
767990,1752,1013,895,16584,-664,-3256,-1408,205,266
768000,1753,1007,894,16580,-556,-3248,-1424,217,328
768010,1752,1005,894,16524,-500,-3404,-1424,239,303
768020,1753,991,895,16452,-564,-3356,-1408,171,228
768030,1753,1002,894,16500,-604,-3476,-1392,66,217
768040,1753,973,895,16512,-640,-3652,-1376,22,257
768050,1753,989,895,16580,-496,-3324,-1392,56,284
768060,1752,989,893,16572,-432,-3292,-1392,85,338
768070,1753,966,915,16588,-572,-3448,-1408,-6,379
768080,1753,908,894,16440,-536,-3204,-1392,-190,356
768090,1753,951,893,16564,-652,-3396,-1424,-335,409
768100,1751,965,894,16460,-864,-3316,-1424,-309,307
768110,1752,980,901,16568,-796,-3296,-1424,-207,231
768120,1752,999,893,16636,-752,-3176,-1408,-91,231
768130,1753,997,895,16632,-744,-3116,-1376,-18,291
768140,1753,997,893,16532,-640,-3288,-1408,15,343
768150,1711,986,895,16452,-780,-3472,-1408,3,289
768160,1753,957,894,16476,-716,-3168,-1392,-2,278
768170,1753,968,893,16556,-664,-3232,-1408,-65,252
768180,1761,970,903,16632,-676,-3316,-1424,-123,275
768190,1747,991,893,16544,-844,-3296,-1392,-119,331
768200,1754,991,894,16584,-724,-3120,-1408,-146,328
768210,1753,986,893,16552,-736,-3292,-1408,-138,308
768220,1753,963,895,16468,-696,-3120,-1408,-31,303
768230,1767,977,895,16540,-724,-3232,-1424,63,278
768240,1752,987,895,16588,-652,-3132,-1424,64,303
768250,1752,985,892,16600,-572,-3268,-1376,46,324
768260,1738,985,891,16564,-408,-3376,-1408,-31,283
768270,1753,993,895,16600,-384,-3040,-1408,-16,273
768280,1753,996,892,16584,-428,-3288,-1408,-28,285
768290,1754,999,893,16508,-376,-3284,-1424,-63,257
768300,1751,973,892,16576,-472,-3236,-1408,-54,272
768310,1751,981,893,16560,-612,-3148,-1408,-30,283
768320,1753,985,893,16560,-504,-3132,-1424,22,281
768330,1753,995,883,16540,-572,-3284,-1408,-26,311
768340,1752,985,893,16436,-560,-3196,-1408,-130,283
768350,1753,953,893,16524,-656,-3020,-1408,-172,260
768360,1753,966,893,16460,-676,-3324,-1408,-136,260
768370,1753,967,893,16520,-664,-3224,-1424,-79,234
768380,1753,972,904,16644,-612,-3304,-1376,-32,280
768390,1752,989,895,16556,-704,-3432,-1376,-86,309
768400,1753,1004,891,16688,-596,-3340,-1424,-145,332
768410,1753,987,894,16476,-716,-3372,-1392,-248,342
768420,1755,983,894,16412,-676,-3292,-1392,-317,267
768430,1753,968,893,16536,-812,-3164,-1408,-324,254
768440,1751,969,891,16640,-808,-3180,-1408,-253,274
768450,1721,982,892,16652,-780,-3228,-1392,-175,334
768460,1752,991,892,16532,-776,-3072,-1392,-143,337
768470,1753,973,894,16484,-764,-3200,-1408,-181,351
768480,1753,980,893,16460,-836,-3284,-1392,-262,299
768490,1749,940,893,16432,-720,-3288,-1376,-277,298
768500,1755,969,892,16484,-884,-3188,-1392,-237,228
768510,1753,979,893,16588,-848,-3404,-1392,-213,236
768520,1753,990,892,16656,-844,-3256,-1376,-203,220
768530,1755,997,893,16668,-704,-3228,-1408,-187,317
768540,1752,988,893,16660,-736,-3156,-1376,-261,409
768550,1752,973,893,16568,-748,-3216,-1424,-311,380
768560,1753,951,907,16428,-872,-3140,-1424,-344,318
768570,1747,967,893,16568,-936,-3096,-1376,-381,257
768580,1753,986,893,16624,-944,-3112,-1408,-348,251
768590,1753,989,893,16584,-952,-2956,-1376,-245,297
768600,1752,990,892,16516,-868,-3200,-1408,-153,357
768610,1764,994,893,16584,-724,-3316,-1424,-178,345
768620,1752,999,894,16492,-680,-3328,-1376,-192,344
768630,1753,990,877,16460,-672,-3316,-1408,-298,350
768640,1753,967,893,16540,-724,-3280,-1408,-409,355
768650,1753,965,892,16508,-736,-3176,-1440,-346,360
768660,1752,970,892,16536,-744,-3360,-1440,-370,368
768670,1752,971,892,16468,-812,-3072,-1408,-445,369
768680,1755,972,892,16560,-840,-2940,-1408,-458,385
768690,1752,971,890,16476,-800,-3180,-1408,-400,343
768700,1753,967,935,16500,-884,-2924,-1408,-311,338
768710,1753,967,891,16544,-752,-3048,-1408,-280,346
768720,1754,948,891,16596,-768,-3264,-1408,-276,359
768730,1756,972,891,16568,-796,-3276,-1408,-339,335
768740,1753,996,890,16500,-756,-3132,-1392,-351,343
768750,1753,986,891,16644,-844,-3092,-1408,-309,358
768760,1752,978,891,16508,-904,-3196,-1376,-320,303
768770,1747,1067,891,16604,-812,-2992,-1424,-287,251
768780,1753,958,891,16468,-924,-3036,-1376,-139,277
768790,1755,951,892,16584,-840,-3236,-1392,-28,323
768800,1753,981,892,16568,-760,-3072,-1424,-20,334
768810,1753,993,891,16536,-684,-2892,-1376,4,363
768820,1754,983,893,16584,-604,-3244,-1392,-44,339
768830,1752,981,891,16536,-696,-3224,-1360,-169,269
768840,1753,986,901,16664,-588,-3132,-1392,-155,281
768850,1751,968,891,16556,-800,-3072,-1424,-131,329
768860,1752,943,890,16620,-852,-3200,-1408,-70,328
768870,1768,967,891,16604,-848,-3072,-1392,-34,351
768880,1752,984,891,16552,-816,-3120,-1360,-11,370
768890,1741,996,891,16504,-768,-2960,-1408,-4,370
768900,1753,987,891,16560,-820,-3044,-1392,-38,269
768910,1770,985,891,16444,-752,-2876,-1392,-115,285
768920,1753,965,891,16604,-724,-3004,-1408,-81,287
768930,1753,954,890,16556,-696,-3120,-1360,100,335
768940,1751,975,890,16588,-652,-3036,-1408,142,419
768950,1754,1011,893,16548,-700,-3208,-1392,-105,496
768960,1751,979,891,16512,-860,-3304,-1392,-504,492
768970,1753,973,892,16468,-1196,-3372,-1376,-708,339
768980,1753,970,889,16472,-1400,-3076,-1408,-433,257
768990,1753,953,890,16568,-1212,-3028,-1408,306,357
769000,1754,956,893,16556,-756,-3216,-1376,724,656
769010,1755,973,891,16660,-424,-3092,-1376,369,1010
769020,1751,950,893,16584,-72,-3532,-1408,-504,986
769030,1753,931,883,16436,-460,-3844,-1408,-1480,502
769040,1755,956,892,16468,-988,-3184,-1376,-1843,306
769050,1755,948,889,16608,-1340,-3012,-1408,-1374,357
769060,1753,953,891,16660,-1292,-3016,-1392,-417,603
769070,1753,953,889,16604,-1008,-2968,-1408,461,1024
769080,1753,965,891,16680,-816,-3332,-1408,500,1178
769090,1754,990,891,16428,-820,-3664,-1392,-246,1053
769100,1753,981,890,16392,-968,-3612,-1376,-805,798
769110,1763,909,889,16484,-840,-3292,-1392,-597,520
769120,1753,889,890,16696,-964,-3432,-1408,-160,541
769130,1751,973,889,16944,-864,-3232,-1408,121,905
769140,1753,991,891,17096,-524,-3376,-1344,125,1308
769150,1751,981,891,16876,-308,-3468,-1408,-79,1504
769160,1751,999,892,16696,-264,-3668,-1392,-690,1343
769170,1752,1015,891,16600,-232,-3764,-1376,-1367,1122
769180,1751,959,892,16760,-604,-3668,-1408,-1968,1075
769190,1753,995,886,16756,-1156,-3624,-1392,-2517,1261
769200,1753,915,890,16600,-1840,-3132,-1376,-2717,1571
769210,1755,903,891,16448,-2516,-3284,-1392,-2524,1694
769220,1752,920,892,16528,-3192,-3332,-1392,-2026,1507
769230,1753,965,891,16408,-3460,-3156,-1408,-1348,1305
769240,1753,947,894,16476,-3844,-3520,-1392,-712,1194
769250,1753,888,902,16520,-4392,-4108,-1392,-649,1284
769260,1751,905,895,16668,-5024,-3636,-1376,-762,1417
769270,1753,885,893,16800,-5540,-3916,-1392,-982,1694
769280,1757,1188,895,16972,-6284,-3744,-1376,-1328,1880
769290,1751,1255,903,16988,-7040,-4016,-1376,-1888,2158
769300,1752,1097,908,17592,-8008,-4092,-1360,-2612,1560
769310,1752,1015,911,18092,-9304,-3884,-1376,-3208,833
769320,1752,995,914,19084,-9840,-3628,-1408,-3163,-86
769330,1753,981,903,20136,-9724,-3084,-1408,-2512,-670
769340,1752,980,890,20084,-8248,-1840,-1408,-1378,362
769350,1753,845,875,20976,-5492,-2224,-1424,-1067,2357
769360,1754,958,867,22520,-2344,-3420,-1376,-1763,2075
769370,1767,953,845,24096,1260,-6008,-1392,-2176,367
769380,1753,960,854,25240,5968,-6648,-1408,-2380,-818
769390,1753,966,889,22240,8864,-4992,-1408,-963,1069
769400,1749,974,890,23556,10768,-5156,-1408,-1568,5420
769410,1737,954,857,28440,8628,-9732,-1392,-12849,7152
769420,1753,971,848,22820,9512,-11992,-1392,-23340,4160
769430,1751,973,871,21148,6444,-13272,-1392,-28070,-316
769440,1755,969,877,24500,5384,-7292,-1376,-32488,-1081
769450,1750,1011,889,26620,7108,696,-1424,-32670,3987
769460,1751,969,895,26456,5516,12,-1408,-29166,8588
769470,1753,971,903,24220,2776,-1108,-1408,-26457,10155
769480,1754,984,911,21484,436,584,-1392,-24387,11173
769490,1753,968,893,21676,-188,5404,-1408,-20243,11806
769500,1747,971,873,21840,1604,9008,-1376,-11995,11286
769510,1753,972,888,19640,1968,6888,-1392,-2919,10455
769520,1751,969,904,17952,1812,5876,-1376,2064,10034
769530,1753,965,907,16364,1996,5344,-1376,3798,10198
769540,1751,969,893,15276,2400,5220,-1440,4989,10076
769550,1754,968,895,14128,3980,5652,-1344,8661,9548
769560,1743,968,893,12628,4756,4760,-1392,13965,8506
769570,1751,967,893,10976,5948,2904,-1392,18376,7852
769580,1754,968,895,10556,7304,836,-1424,19628,7631
769590,1755,968,890,10120,8360,-88,-1376,17937,7503
769600,1753,969,889,9360,10180,-212,-1408,15105,7363
769610,1747,969,889,8408,10828,-336,-1424,12536,7313
769620,1752,968,888,7832,10992,-908,-1424,10043,6126
769630,1751,968,893,7420,10352,-772,-1344,7630,4454
769640,1751,969,885,6580,9436,-720,-1360,5541,2674
769650,1753,968,878,5892,9152,124,-1376,4147,1681
769660,1755,953,879,5768,8916,724,-1392,3270,1646
769670,1754,968,885,5752,8564,688,-1424,2334,1670
769680,1751,969,885,5320,7632,1304,-1408,1212,1751
769690,1751,968,884,4788,6864,2140,-1392,765,1538
769700,1753,967,884,4764,5928,1860,-1392,1090,395
769710,1752,969,887,4652,5152,1800,-1408,1729,-461
769720,1747,968,889,4844,4680,2188,-1424,2643,-895
769730,1752,968,887,5368,4516,1976,-1408,3856,-1128
769740,1751,969,889,5512,4656,1840,-1392,4761,-1158
769750,1749,968,888,5500,4984,1488,-1424,5314,-774
769760,1746,968,887,5612,5168,1552,-1376,5214,-151
769770,1750,969,893,6196,5104,1452,-1408,4680,-10
769780,1751,969,904,6372,4036,1464,-1376,3993,-693
769790,1753,969,907,7580,3100,3448,-1408,3975,-1766
769800,1754,970,892,9088,2736,3996,-1376,6145,-3514
769810,1754,972,890,10124,2168,4364,-1408,10265,-6531
769820,1758,967,879,10564,3116,3632,-1408,15676,-10079
769830,1755,977,869,11668,4584,1492,-1392,20997,-12896
769840,1742,968,877,12896,6448,-2132,-1408,24677,-16145
769850,1753,968,885,15340,8564,-5644,-1376,24869,-17741
769860,1752,967,884,16984,10552,-6784,-1408,21309,-16469
769870,1753,969,884,18060,12372,-7660,-1376,15544,-12224
769880,1750,915,885,18776,13840,-8040,-1360,8810,-6746
769890,1749,971,887,18304,13504,-8020,-1392,1317,-219
769900,1751,969,893,17052,11940,-7168,-1424,-5948,5102
769910,1753,971,895,15308,9716,-5340,-1376,-11191,7770
769920,1754,969,893,13252,6644,-3292,-1408,-13783,7781
769930,1751,970,892,11964,4296,-1932,-1392,-14075,5714
769940,1750,967,889,11284,2040,-164,-1392,-11931,2301
769950,1743,973,902,15576,24,-216,-1408,-7618,-2102
769960,1774,957,877,32767,1200,-3020,-1408,-3764,-17596
769970,1767,975,875,32767,720,-7908,-1408,-1505,-32768
769980,1741,966,850,28884,-7160,-8520,-1392,-3813,-32768
769990,1748,971,853,19228,-3712,2120,-1392,-3601,-3885
770000,1741,971,925,15436,1568,8284,-1440,2397,24787
770010,1762,973,906,10932,4636,6256,-1408,12097,32767
770020,1749,973,877,8200,6040,-6828,-1392,18274,32767
770030,1752,973,877,10948,6140,-6612,-1408,16293,23320
770040,1749,969,878,11496,6496,-9796,-1392,5740,4635
770050,1751,972,885,12200,5908,-8764,-1408,-4093,-10342
770060,1725,965,893,12448,7192,-5484,-1408,-13037,-19635
770070,1748,959,893,23136,3244,7672,-1392,-22897,-27583
770080,1755,964,901,20800,4800,5760,-1392,-19732,-21962
770090,1752,967,904,22568,3696,3632,-1392,-5319,-13821
770100,1749,967,870,19300,928,-1996,-1392,7551,-4097
770110,1755,968,885,17832,3788,-3968,-1408,13893,5771
770120,1751,971,873,16176,6204,-4604,-1424,13384,11196
770130,1751,971,885,14480,9572,-5400,-1392,11590,11732
770140,1749,971,884,13068,11444,-6120,-1376,9303,8113
770150,1747,970,889,12372,12228,-6724,-1424,5429,2156
770160,1753,970,890,13172,12628,-6424,-1376,274,-3363
770170,1755,969,891,16064,11596,-6360,-1376,-4731,-8030
770180,1753,971,905,17388,9740,-4804,-1392,-7624,-9800
770190,1752,969,895,18136,8072,-960,-1408,-8142,-7022
770200,1752,971,890,19344,7452,996,-1376,-3209,-2541
770210,1754,970,885,18908,6020,-652,-1408,2347,797
770220,1753,969,885,17092,5036,-1584,-1408,5370,3198
770230,1753,971,879,15904,5408,-1764,-1408,6500,3595
770240,1753,969,886,15588,6684,-2140,-1392,6866,1374
770250,1751,969,882,15304,7176,-2996,-1392,6627,-1779
770260,1749,969,881,15440,7576,-3828,-1392,5125,-4063
770270,1750,991,891,15872,7568,-3860,-1408,2693,-4474
770280,1751,968,892,16720,7484,-3460,-1392,647,-3769
770290,1751,969,889,17428,6200,-4628,-1408,-915,-3290
770300,1751,969,887,17120,5208,-3904,-1392,-1497,-2797
770310,1753,968,885,16660,4440,-3492,-1424,-1033,-1900
770320,1753,970,883,16212,3860,-4348,-1376,67,-1554
770330,1752,968,877,15992,3392,-4272,-1424,824,-1529
770340,1751,969,889,16024,3228,-4560,-1392,966,-1664
770350,1753,968,888,16216,3216,-4540,-1440,270,-1890
770360,1752,969,887,15888,3308,-3492,-1408,271,-1623
770370,1753,968,870,15852,3108,-4276,-1408,1316,-1590
770380,1749,970,878,15780,2108,-6304,-1392,1154,-2212
770390,1753,968,884,15528,1488,-5560,-1392,-154,-2020
770400,1752,970,887,15724,976,-4304,-1408,-1090,-728
770410,1735,936,884,15832,536,-4400,-1440,-1036,-16
770420,1753,969,883,15784,52,-4188,-1376,-485,15
770430,1749,967,901,15652,-340,-4024,-1376,-44,138
770440,1754,969,883,15424,-804,-4152,-1392,-234,382
770450,1751,969,884,15492,-1464,-3948,-1408,-1021,463
770460,1752,969,885,15664,-1924,-3084,-1408,-1824,437
770470,1753,968,884,15860,-1584,-2544,-1392,-1625,-42
770480,1753,969,886,15852,-1352,-3256,-1376,-969,-852
770490,1753,969,887,15936,-840,-4412,-1408,-895,-1276
770500,1753,875,886,15880,-1288,-5544,-1408,-1901,-971
770510,1753,967,884,16140,-1508,-5620,-1376,-3231,-466
770520,1751,969,883,15932,-1828,-4872,-1392,-3139,451
770530,1755,969,890,15900,-1880,-4388,-1376,-2330,1075
770540,1751,968,878,15652,-1184,-3556,-1424,-401,1496
770550,1752,969,883,16000,-1108,-3892,-1408,1675,1339
770560,1749,969,882,16256,-976,-4560,-1408,2612,709
770570,1751,969,881,16412,-1136,-4476,-1392,2437,321
770580,1749,969,866,16900,-496,-3012,-1392,1932,515
770590,1753,969,885,16836,-584,-3392,-1392,1602,677
770600,1751,969,884,16632,-620,-4068,-1392,1312,428
770610,1781,970,887,16228,-1084,-4400,-1408,929,159
770620,1753,967,883,16220,-1384,-4112,-1424,839,2
770630,1752,969,877,16240,-820,-3580,-1424,1675,52
770640,1753,968,877,16444,-372,-4288,-1408,2564,-46
770650,1751,969,887,16656,-156,-5012,-1408,2535,-189
770660,1751,970,886,16572,-308,-5300,-1408,1714,-242
770670,1752,969,891,16560,-916,-4308,-1392,180,134
770680,1753,969,885,16540,-1100,-3580,-1424,-657,614
770690,1751,969,883,16264,-988,-4708,-1408,-400,302
770700,1752,969,877,16096,-836,-5616,-1376,390,-376
770710,1751,969,873,16596,-600,-5208,-1376,960,-664
770720,1752,969,872,16940,-364,-4364,-1408,927,-171
770730,1752,968,879,17088,-180,-4164,-1392,354,706
770740,1752,969,883,16836,108,-4604,-1408,-591,1199
770750,1753,971,887,16476,256,-4352,-1408,-1390,1047
770760,1754,969,883,16204,76,-4776,-1392,-2013,541
770770,1751,968,878,16600,-388,-4884,-1376,-2884,-154
770780,1751,969,877,16732,-840,-5100,-1376,-3460,-748
770790,1751,971,879,16740,-756,-4948,-1408,-2903,-808
770800,1751,970,882,16384,-580,-4700,-1408,-1009,-395
770810,1763,971,878,16532,128,-4852,-1408,1047,425
770820,1749,973,886,16360,240,-5992,-1408,1949,1011
770830,1751,980,885,16404,300,-5740,-1408,1462,1314
770840,1749,987,888,16400,0,-5680,-1456,169,1376
770850,1752,999,892,15900,-820,-5792,-1408,-1611,1220
770860,1751,1013,895,15928,-2016,-5844,-1392,-3378,839
770870,1751,1063,895,15972,-3208,-5864,-1408,-4383,473
770880,1751,1097,901,16140,-3956,-5096,-1392,-4579,669
770890,1749,1134,943,16396,-4900,-4276,-1392,-4453,1470
770900,1752,1070,896,16508,-5368,-4148,-1408,-4385,2307
770910,1753,972,910,16192,-5616,-3696,-1424,-4209,2767
770920,1755,905,893,16240,-5632,-3364,-1424,-3737,2734
770930,1755,861,892,16108,-4692,-2968,-1440,-2511,2355
770940,1752,831,891,16216,-3804,-2928,-1408,-935,2220
770950,1753,851,889,16432,-2880,-2952,-1376,131,2438
770960,1753,873,886,16136,-1964,-3028,-1392,486,2877
770970,1753,883,887,15952,-1176,-3008,-1424,234,3212
770980,1747,891,877,15616,-484,-3064,-1408,15,2979
770990,1753,906,879,15556,224,-3000,-1408,-80,2527
771000,1753,923,883,15812,544,-3020,-1408,-329,2007
771010,1753,928,875,16232,804,-2728,-1376,-646,1440
771020,1767,958,873,16616,1340,-1964,-1392,-499,1036
771030,1753,983,874,16984,1964,-1728,-1408,235,993
771040,1752,977,873,17048,2316,-1892,-1376,753,1365
771050,1753,986,876,16872,2420,-2252,-1424,636,1739
771060,1752,1000,875,16420,2456,-2136,-1408,210,1798
771070,1751,977,873,16004,2024,-2304,-1408,-317,1326
771080,1748,974,869,16048,1532,-2868,-1376,-627,429
771090,1752,971,877,16176,1032,-3044,-1408,-504,-504
771100,1753,985,876,16488,640,-2864,-1392,208,-647
771110,1751,1001,877,16860,360,-3156,-1376,808,-115
771120,1751,1005,879,16936,356,-3444,-1392,1053,562
771130,1752,1006,884,16776,480,-3744,-1376,921,926
771140,1751,1003,884,16416,328,-3836,-1376,234,916
771150,1753,987,886,16376,-32,-3780,-1424,-817,724
771160,1751,986,883,16180,-404,-3556,-1424,-1754,490
771170,1752,973,883,16352,-860,-3352,-1392,-2293,241
771180,1750,956,885,16576,-1328,-3420,-1424,-2576,165
771190,1751,928,885,16556,-1728,-3176,-1408,-2341,404
771200,1752,943,889,16428,-2028,-2912,-1392,-2023,751
771210,1752,926,893,16408,-2164,-2864,-1424,-1626,902
771220,1751,939,883,16304,-1940,-2896,-1440,-869,612
771230,1753,977,883,16288,-1708,-3028,-1392,-293,370
771240,1752,988,884,16572,-1352,-3264,-1424,-234,397
771250,1751,974,884,16440,-692,-3412,-1392,-219,648
771260,1753,953,883,16468,-264,-3132,-1392,-141,753
771270,1751,965,877,16560,-316,-3112,-1440,-109,609
771280,1752,986,878,16704,56,-3068,-1392,-229,442
771290,1752,984,877,16684,280,-3084,-1392,-208,393
771300,1752,967,877,16684,452,-2664,-1424,-172,500
771310,1753,959,878,16728,440,-2704,-1392,-385,471
771320,1753,968,878,16684,320,-2636,-1376,-578,444
771330,1753,990,877,16540,116,-2396,-1360,-580,251
771340,1753,947,879,16484,-228,-2604,-1392,-426,43
771350,1746,938,882,16452,-372,-2800,-1392,-152,-259
771360,1753,971,877,16608,-384,-2668,-1392,336,-269
771370,1752,987,876,16756,-180,-2712,-1408,803,-89
771380,1751,997,879,16668,160,-3288,-1424,863,114
771390,1751,957,883,16424,208,-3468,-1392,371,136
771400,1751,1071,883,16296,-60,-3096,-1376,-243,-8
771410,1752,973,880,16344,-352,-3292,-1392,-564,-281
771420,1751,969,879,16312,-600,-3524,-1408,-606,-499
771430,1752,979,879,16600,-908,-3264,-1392,-384,-504
771440,1751,982,877,16788,-788,-3040,-1392,118,-189
771450,1753,985,879,16864,-732,-3052,-1408,471,181
771460,1754,972,879,16660,-548,-3032,-1408,376,316
771470,1752,971,879,16340,-736,-3276,-1376,101,156
771480,1771,956,879,16312,-744,-3216,-1408,10,-295
771490,1753,969,877,16492,-844,-3276,-1392,160,-506
771500,1751,975,878,16572,-624,-3308,-1376,346,-371
771510,1752,967,883,16692,-664,-3324,-1408,634,-82
771520,1752,980,882,16732,-572,-3176,-1376,762,199
771530,1753,968,879,16548,-460,-2956,-1408,596,328
771540,1751,943,901,16332,-404,-3252,-1424,212,78
771550,1753,947,883,16372,-572,-3324,-1376,-108,-430
771560,1753,956,878,16480,-660,-3188,-1408,5,-669
771570,1752,967,878,16696,-588,-3200,-1392,411,-496
771580,1753,983,879,16760,-244,-3448,-1376,776,-160
771590,1743,991,880,16660,268,-3524,-1424,830,203
771600,1750,989,879,16516,184,-3752,-1408,243,309
771610,1753,969,882,16380,100,-3696,-1408,-571,106
771620,1751,953,877,16324,-288,-3644,-1424,-972,-349
771630,1754,971,875,16460,-532,-3680,-1424,-806,-663
771640,1719,977,877,16704,-708,-3292,-1392,-112,-515
771650,1747,989,877,16864,-652,-3372,-1408,552,-18
771660,1752,984,879,16680,-456,-3504,-1440,683,473
771670,1751,965,879,16416,-532,-3556,-1392,156,452
771680,1752,954,882,16284,-772,-3432,-1424,-379,-11
771690,1749,956,876,16188,-820,-3492,-1392,-452,-468
771700,1753,967,877,16460,-936,-3412,-1424,-72,-595
771710,1753,956,882,16796,-716,-3460,-1408,370,-355
771720,1753,971,879,16768,-652,-3480,-1392,609,63
771730,1752,971,878,16688,-404,-3384,-1392,526,344
771740,1751,957,877,16384,-384,-3628,-1440,364,339
771750,1752,952,878,16244,-396,-3728,-1392,63,-77
771760,1775,956,886,16368,-680,-3564,-1392,-205,-382
771770,1751,954,877,16444,-708,-3552,-1392,-250,-320
771780,1752,955,879,16652,-924,-3608,-1392,-144,-110
771790,1753,968,859,16444,-928,-3352,-1408,122,132
771800,1752,969,875,16548,-804,-3104,-1424,298,310
771810,1751,956,877,16488,-764,-3476,-1392,226,216
771820,1753,957,879,16408,-748,-3552,-1408,136,-131
771830,1751,955,877,16468,-740,-3476,-1392,269,-286
771840,1748,956,877,16628,-608,-3576,-1376,483,-188
771850,1751,959,877,16588,-408,-3684,-1392,619,67
771860,1752,970,877,16492,-308,-3624,-1424,684,242
771870,1751,965,877,16512,-148,-3712,-1408,463,283
771880,1784,959,876,16320,-248,-3744,-1408,127,143
771890,1753,959,857,16344,-416,-3652,-1376,-49,-118
771900,1752,965,876,16504,-428,-3512,-1408,15,-230
771910,1752,971,876,16680,-408,-3648,-1392,306,-83
771920,1753,978,877,16728,-296,-3764,-1376,567,177
771930,1749,979,877,16588,-184,-3512,-1376,582,364
771940,1765,979,871,16488,-108,-3676,-1376,318,370
771950,1753,981,877,16396,-168,-3556,-1440,47,136
771960,1752,984,877,16412,-220,-3544,-1392,-6,-144
771970,1750,980,879,16508,-168,-3556,-1376,50,-232
771980,1752,979,861,16676,-236,-3548,-1376,136,-135
771990,1751,982,877,16676,-244,-3476,-1392,226,99
772000,1753,1043,876,16528,-72,-3668,-1408,188,262
772010,1751,973,877,16404,-164,-3724,-1376,6,183
772020,1751,973,877,16364,-280,-3672,-1376,-279,-12
772030,1752,969,877,16416,-376,-3376,-1408,-429,-30
772040,1751,955,877,16412,-644,-3424,-1424,-531,-148
772050,1753,951,876,16516,-924,-3464,-1408,-329,-225
772060,1752,959,876,16672,-900,-3384,-1376,196,-158
772070,1750,969,876,16556,-764,-3444,-1424,709,39
772080,1752,972,877,16572,-440,-3644,-1408,827,149
772090,1752,970,877,16464,-396,-3632,-1424,569,140
772100,1751,959,877,16532,-460,-3800,-1408,31,38
772110,1753,955,875,16320,-708,-3844,-1408,-429,-143
772120,1752,965,877,16420,-876,-3860,-1392,-273,-470
772130,1753,969,879,16600,-892,-3712,-1424,353,-265
772140,1753,972,879,16664,-648,-3784,-1424,891,74
772150,1752,989,876,16672,-324,-3920,-1360,838,455
772160,1752,983,876,16480,-136,-3868,-1408,378,608
772170,1751,927,878,16300,-252,-3900,-1392,-276,317
772180,1752,959,877,16312,-348,-3864,-1392,-658,-129
772190,1752,974,875,16484,-548,-3396,-1408,-527,-291
772200,1753,973,877,16692,-532,-3564,-1392,-137,-115
772210,1751,986,877,16760,-604,-3480,-1392,236,203
772220,1751,986,877,16564,-444,-3384,-1424,477,461
772230,1753,971,877,16280,-328,-3704,-1424,429,455
772240,1753,966,877,16212,-444,-3712,-1376,115,146
772250,1752,959,876,16388,-396,-3648,-1424,-98,-180
772260,1752,965,875,16484,-500,-3576,-1392,-71,-150
772270,1751,964,875,16576,-556,-3640,-1392,0,118
772280,1753,965,875,16532,-588,-3792,-1392,43,301
772290,1752,967,875,16472,-632,-3664,-1408,92,250
772300,1752,956,857,16292,-480,-3504,-1424,219,133
772310,1752,959,875,16408,-492,-3720,-1424,179,41
772320,1752,957,875,16568,-372,-3820,-1408,-10,60
772330,1751,997,874,16580,-352,-3740,-1408,-88,187
772340,1753,959,877,16464,-492,-3716,-1408,-207,302
772350,1753,975,875,16460,-624,-3780,-1392,-362,209
772360,1753,971,876,16276,-808,-3616,-1392,-331,168
772370,1752,969,875,16476,-844,-3588,-1440,-243,118
772380,1741,967,876,16548,-888,-3820,-1408,-207,56
772390,1753,967,876,16456,-784,-3656,-1392,-6,121
772400,1751,969,876,16568,-776,-3444,-1408,291,234
772410,1752,967,877,16416,-632,-3580,-1408,424,250
772420,1752,958,875,16444,-612,-3616,-1408,456,212
772430,1752,938,876,16392,-420,-3544,-1408,353,187
772440,1751,950,876,16468,-480,-3412,-1456,190,125
772450,1751,979,871,16364,-600,-3528,-1408,127,55
772460,1753,1053,876,16440,-720,-3368,-1408,324,42
772470,1752,988,876,16460,-676,-3728,-1424,510,75
772480,1752,965,875,16484,-764,-3844,-1408,613,149
772490,1751,943,875,16592,-520,-3476,-1392,589,246
772500,1753,936,876,16464,-440,-3772,-1408,592,269
772510,1751,937,875,16428,-432,-4232,-1408,234,164
772520,1753,956,877,16512,-400,-3992,-1424,0,55
772530,1751,956,875,16464,-356,-3976,-1392,-7,78
772540,1751,986,873,16636,-256,-4032,-1392,138,249
772550,1752,981,875,16576,-60,-3992,-1376,213,448
772560,1751,969,877,16464,-24,-4032,-1408,-213,513
772570,1751,968,875,16440,-312,-3916,-1392,-693,404
772580,1751,969,876,16356,-420,-3588,-1392,-741,199
772590,1749,971,875,16544,-516,-3776,-1440,-504,112
772600,1753,971,877,16692,-620,-3580,-1424,-277,242
772610,1752,975,875,16636,-568,-3536,-1440,-172,410
772620,1753,973,875,16516,-608,-3616,-1424,-238,527
772630,1751,985,875,16420,-524,-3796,-1424,-386,494
772640,1753,983,875,16380,-692,-3500,-1408,-441,294
772650,1741,983,875,16348,-816,-3680,-1424,-496,96
772660,1753,979,915,16512,-876,-3600,-1424,-438,63
772670,1751,975,873,16636,-860,-3492,-1392,-112,194
772680,1751,972,874,16520,-600,-3764,-1424,183,370
772690,1751,969,875,16504,-380,-3704,-1408,159,521
772700,1751,967,875,16500,-424,-3796,-1392,-79,502
772710,1751,968,875,16440,-592,-3764,-1392,-370,313
772720,1751,969,875,16496,-672,-3924,-1408,-454,150
772730,1751,974,875,16512,-712,-3676,-1408,-352,155
772740,1751,981,874,16692,-724,-3332,-1408,-84,406
772750,1751,971,875,16512,-648,-3464,-1424,99,557
772760,1751,959,875,16504,-552,-3660,-1392,-11,464
772770,1752,967,875,16364,-672,-3532,-1408,-174,310
772780,1751,969,873,16316,-572,-3352,-1408,-123,176
772790,1742,968,874,16456,-444,-3632,-1392,36,198
772800,1741,969,874,16656,-364,-3844,-1376,187,306
772810,1749,969,873,16580,-412,-3576,-1376,113,504
772820,1751,969,875,16452,-368,-3688,-1408,-95,503
772830,1751,970,873,16412,-368,-3572,-1408,-259,386
772840,1755,965,872,16364,-476,-3632,-1424,-230,205
772850,1753,1043,875,16516,-612,-3652,-1408,-195,151
772860,1751,965,874,16560,-560,-3472,-1408,-99,326
772870,1751,953,875,16632,-652,-3624,-1440,48,486
772880,1752,958,875,16472,-516,-3640,-1440,79,505
772890,1751,965,875,16488,-620,-3632,-1424,-63,401
772900,1750,971,874,16400,-620,-3656,-1376,-172,327
772910,1752,968,873,16540,-464,-3492,-1408,-196,283
772920,1751,957,874,16608,-532,-3576,-1392,-188,208
772930,1751,955,875,16392,-568,-3564,-1408,-213,356
772940,1749,965,873,16528,-588,-3476,-1392,-156,395
772950,1752,965,875,16460,-468,-3492,-1408,-20,341
772960,1750,965,873,16448,-500,-3480,-1408,135,266
772970,1752,967,872,16644,-452,-3428,-1392,143,287
772980,1752,967,873,16576,-396,-3364,-1392,73,367
772990,1752,970,874,16496,-420,-3576,-1376,-58,340
773000,1751,969,875,16456,-460,-3512,-1408,-68,266
773010,1751,967,874,16488,-388,-3524,-1424,15,215
773020,1753,971,874,16484,-436,-3624,-1424,62,238
773030,1751,970,874,16652,-392,-3528,-1424,14,348
773040,1749,974,873,16640,-412,-3600,-1408,-98,376
773050,1752,969,873,16416,-468,-3488,-1424,-172,336
773060,1751,971,869,16432,-504,-3592,-1408,-233,263
773070,1747,969,873,16476,-564,-3392,-1408,-256,227
773080,1751,968,872,16660,-552,-3660,-1392,-176,285
773090,1753,957,875,16556,-424,-3484,-1408,-22,345
773100,1753,955,873,16604,-468,-3576,-1392,-89,386
773110,1751,967,873,16500,-496,-3352,-1392,-190,374
773120,1752,967,874,16400,-636,-3376,-1408,-284,306
773130,1751,971,873,16500,-576,-3372,-1408,-333,227
773140,1751,975,873,16484,-592,-3356,-1408,-247,235
773150,1751,974,871,16484,-552,-3404,-1376,-57,304
773160,1751,984,874,16476,-468,-3352,-1424,84,320
773170,1752,965,873,16600,-452,-3508,-1408,-5,270
773180,1751,952,873,16556,-532,-3448,-1376,-124,201
773190,1754,959,873,16608,-488,-3504,-1408,-67,177
773200,1751,958,875,16468,-548,-3336,-1376,10,129
773210,1752,953,875,16496,-520,-3452,-1424,17,164
773220,1752,969,872,16516,-528,-3616,-1408,36,241
773230,1751,973,865,16496,-360,-3480,-1440,94,251
773240,1751,974,873,16512,-340,-3660,-1424,46,270
773250,1755,973,872,16548,-372,-3652,-1440,-137,218
773260,1752,980,872,16472,-432,-3488,-1440,-222,282
773270,1751,966,873,16444,-348,-3536,-1408,-102,261
773280,1752,967,873,16552,-440,-3600,-1408,53,191
773290,1753,969,872,16632,-476,-3704,-1456,-11,220
773300,1751,965,871,16584,-476,-3448,-1440,-96,296
773310,1752,951,873,16604,-348,-3476,-1408,-27,320
773320,1751,967,873,16464,-276,-3392,-1408,140,418
773330,1752,973,857,16620,-428,-3436,-1392,52,247
773340,1752,971,872,16400,-360,-3560,-1424,-120,226
773350,1757,971,873,16584,-368,-3432,-1440,-25,153
773360,1748,977,871,16624,-224,-3364,-1408,105,223
773370,1752,1094,875,16448,-288,-3664,-1424,3,349
773380,1749,979,871,16344,-336,-3808,-1408,-167,322
773390,1751,977,871,16448,-368,-3560,-1424,-186,221
773400,1751,971,888,16428,-520,-3496,-1392,-147,176
773410,1751,970,871,16532,-544,-3512,-1376,-134,234
773420,1751,968,871,16420,-520,-3572,-1424,-38,314
773430,1753,957,871,16528,-236,-3424,-1424,66,414
773440,1751,966,875,16484,-148,-3388,-1408,-37,459
773450,1751,967,873,16456,-184,-3572,-1408,-253,355
773460,1752,969,873,16448,-224,-3416,-1424,-381,227
773470,1752,966,874,16580,-440,-3420,-1392,-287,185
773480,1752,955,873,16552,-436,-3428,-1392,-199,224
773490,1751,959,872,16452,-472,-3548,-1408,-69,303
773500,1751,971,871,16468,-368,-3464,-1392,-13,358
773510,1751,981,873,16556,-420,-3552,-1408,-82,383
773520,1752,966,871,16488,-368,-3440,-1440,-202,374
773530,1750,963,872,16380,-428,-3460,-1424,-328,263
773540,1751,959,872,16444,-444,-3484,-1408,-384,184
773550,1751,925,871,16500,-556,-3460,-1392,-194,143
773560,1751,966,871,16672,-368,-3356,-1424,79,262
773570,1751,957,872,16476,-280,-3468,-1408,204,395
773580,1751,967,871,16508,-176,-3472,-1408,39,399
773590,1753,969,873,16376,-196,-3356,-1376,-234,346
773600,1755,970,872,16368,-192,-3232,-1408,-296,251
773610,1750,965,871,16432,-288,-3360,-1424,-143,185
773620,1751,968,871,16520,-428,-3356,-1376,-119,158
773630,1749,973,870,16640,-604,-3416,-1408,-197,290
773640,1751,973,871,16532,-424,-3236,-1408,-9,357
773650,1751,968,873,16480,-228,-3348,-1408,181,294
773660,1752,970,869,16448,-260,-3476,-1408,158,256
773670,1753,969,871,16616,-236,-3460,-1376,-33,244
773680,1749,972,871,16448,-108,-3556,-1376,-180,239
773690,1751,973,870,16500,-244,-3408,-1392,-181,283
773700,1751,971,872,16560,-380,-3404,-1408,-278,272
773710,1752,967,871,16508,-420,-3280,-1376,-259,208
773720,1753,969,870,16460,-536,-3188,-1392,-71,209
773730,1751,965,871,16564,-464,-3172,-1392,154,372
773740,1752,967,870,16596,-480,-3100,-1392,241,380
773750,1751,968,872,16464,-384,-3172,-1408,223,288
773760,1752,971,869,16452,-588,-2876,-1408,188,255
773770,1749,966,862,16376,-544,-2908,-1376,378,132
773780,1752,967,871,16408,-612,-2704,-1392,648,114
773790,1751,967,869,16548,-532,-2444,-1392,889,212
773800,1753,951,873,16380,-536,-2712,-1392,978,123
773810,1751,922,870,16360,-304,-3044,-1376,1122,-4
773820,1752,917,875,16420,-12,-3332,-1424,1245,-114
773830,1749,943,873,16448,504,-4128,-1424,1211,-49
773840,1752,966,871,16476,920,-4708,-1376,931,165
773850,1785,1011,871,16556,1148,-4844,-1392,24,360
773860,1751,1017,872,16488,948,-5044,-1424,-1243,582
773870,1751,921,873,16356,32,-5148,-1424,-2627,696
773880,1751,895,868,16204,-812,-4400,-1360,-3342,782
773890,1751,923,871,16440,-1388,-3600,-1408,-2830,794
773900,1782,935,868,16700,-1752,-3968,-1392,-1972,716
773910,1751,955,872,16796,-1864,-3908,-1392,-1523,856
773920,1750,909,873,16748,-1772,-3720,-1392,-1256,1197
773930,1752,887,871,16736,-1544,-4148,-1392,-996,1344
773940,1738,924,871,16616,-1428,-4040,-1408,-969,1291
773950,1751,956,872,16588,-1124,-4384,-1408,-1128,1410
773960,1752,984,870,16488,-1188,-4160,-1408,-1409,1502
773970,1752,967,875,16420,-1336,-3980,-1376,-1859,1493
773980,1751,973,877,16540,-1704,-3908,-1392,-2289,1371
773990,1748,974,872,16444,-2260,-3588,-1376,-2255,1373
774000,1739,947,883,16464,-2756,-3636,-1408,-1818,1302
774010,1748,909,879,16660,-3288,-4052,-1408,-1492,1131
774020,1749,941,883,16420,-4228,-4084,-1408,-1712,1297
774030,1753,915,879,16568,-4792,-3532,-1408,-2109,1742
774040,1753,907,874,16816,-5176,-3132,-1408,-2093,1801
774050,1752,855,867,16964,-4968,-3020,-1408,-1747,1405
774060,1749,776,879,16944,-4820,-3564,-1360,-1065,973
774070,1753,1459,869,16916,-4696,-4460,-1408,-498,584
774080,1752,1102,867,16796,-4732,-4004,-1424,439,474
774090,1752,1044,865,16952,-4216,-3780,-1376,1938,664
774100,1751,989,867,17152,-3608,-4756,-1408,3036,990
774110,1749,970,861,17380,-3280,-5796,-1392,2494,1087
774120,1751,965,873,17932,-3344,-5032,-1424,241,1212
774130,1751,956,872,18748,-3896,-4000,-1392,-2708,1746
774140,1751,954,870,19796,-4212,-3460,-1424,-4711,1525
774150,1748,955,861,20152,-3520,-2116,-1408,-4546,1081
774160,1750,936,861,21184,-1412,-1240,-1360,-2745,937
774170,1751,954,861,22596,-112,-3388,-1376,-2285,-209
774180,1741,953,862,25200,1176,-6484,-1392,-4416,-2348
774190,1748,949,867,28064,1328,-6800,-1424,-9241,-3883
774200,1758,951,857,28624,396,-4600,-1408,-14196,-1512
774210,1753,949,893,29584,-4600,-10748,-1408,-18836,2264
774220,1747,959,841,28960,-3652,-8752,-1408,-18199,5666
774230,1754,953,853,23068,-2444,-1012,-1376,-8217,13179
774240,1751,953,876,21500,-160,-4188,-1392,221,19179
774250,1755,950,867,22764,-2084,-6848,-1376,-2932,18790
774260,1755,943,851,25092,860,-4396,-1376,-8281,11448
774270,1757,951,843,23032,3088,-688,-1424,-7613,4221
774280,1755,953,837,22964,7580,1316,-1408,-319,83
774290,1753,943,841,25172,12524,748,-1424,4811,-939
774300,1749,959,839,26332,16084,-5212,-1376,5528,-2537
774310,1739,955,858,23884,16824,-5468,-1408,-1745,-505
774320,1737,953,903,22252,15980,-2692,-1392,-12170,6534
774330,1739,956,891,19564,13388,-548,-1392,-19740,12195
774340,1735,956,871,17188,10212,2556,-1424,-18551,13965
774350,1753,956,879,14532,5728,4500,-1392,-12257,12342
774360,1752,957,867,11748,2856,5748,-1408,-3943,9683
774370,1752,968,871,9652,2588,6300,-1392,5136,7857
774380,1753,1003,872,8512,4724,5588,-1392,12398,7132
774390,1751,953,870,7592,6124,4020,-1392,16193,6278
774400,1743,951,871,6580,7916,920,-1392,17219,4455
774410,1747,951,873,5836,9776,-1692,-1376,14418,2367
774420,1750,953,867,5640,10220,-2264,-1392,10367,659
774430,1747,953,864,4884,9916,-1828,-1424,6632,-1568
774440,1755,953,875,4332,8572,-864,-1408,4268,-2513
774450,1753,954,866,4016,7436,-552,-1408,2211,-2314
774460,1751,953,869,4176,6080,992,-1408,604,-493
774470,1751,955,871,4004,5092,2552,-1376,133,1440
774480,1751,955,872,3436,4600,3508,-1408,1095,2578
774490,1746,954,869,3116,4236,2888,-1408,3001,2369
774500,1749,953,858,2788,4032,2300,-1440,4567,1273
774510,1747,955,862,3188,4632,1944,-1392,5430,631
774520,1751,923,866,3696,6036,1740,-1408,6435,435
774530,1752,953,869,4288,8152,988,-1408,8358,151
774540,1751,955,866,4532,8636,-1084,-1440,7981,1103
774550,1751,955,874,4792,8556,-2228,-1440,3494,2199
774560,1751,954,878,4472,7984,-1524,-1424,-3041,3310
774570,1751,955,873,4748,6404,-144,-1408,-7523,3383
774580,1749,955,869,5584,5820,816,-1408,-7757,1747
774590,1748,955,873,7120,4380,936,-1440,-4867,-2084
774600,1739,953,879,8828,3116,1668,-1408,-1868,-5851
774610,1752,954,870,11736,2260,1712,-1392,947,-8091
774620,1751,955,863,13980,1720,792,-1392,2263,-8386
774630,1753,954,871,16052,2280,2192,-1424,4153,-7443
774640,1758,954,869,16480,2612,2928,-1424,8063,-4895
774650,1755,954,853,16644,4336,2644,-1408,13169,-2519
774660,1752,951,851,15684,5736,-132,-1392,17976,-1499
774670,1749,957,856,15340,7468,-2984,-1392,18759,-1411
774680,1757,955,855,15724,8852,-3352,-1408,16159,-1682
774690,1753,955,860,16348,10184,-4872,-1392,11647,-2487
774700,1749,955,869,16048,9944,-5868,-1392,5630,-3226
774710,1749,955,867,16004,9344,-4300,-1424,-105,-2728
774720,1752,956,872,15636,8292,-2572,-1456,-4029,-1241
774730,1752,957,869,15216,7164,-1636,-1408,-5366,-148
774740,1752,957,869,14136,5552,-1052,-1440,-5888,587
774750,1753,956,867,12936,4976,-8,-1408,-5404,938
774760,1743,1031,872,12976,3864,-632,-1408,-4408,303
774770,1752,951,885,21568,1588,-5880,-1392,-5287,-5685
774780,1755,954,871,32767,-84,-6076,-1408,-9465,-18679
774790,1757,956,846,32767,-3116,-9128,-1376,-12494,-32768
774800,1754,954,861,32767,-7656,-2332,-1408,-13938,-29683
774810,1736,995,853,22964,-7360,4568,-1408,-6894,3043
774820,1748,959,799,9484,-3164,7640,-1424,8123,27100
774830,1749,960,883,4108,2192,2780,-1408,20934,32767
774840,1757,969,887,5276,6524,-2456,-1408,29262,32767
774850,1751,965,862,13960,6912,-5744,-1456,23518,25723
774860,1773,968,830,20088,12280,-15960,-1408,9481,2555
774870,1751,989,916,12948,9748,-8044,-1424,-5367,-19941
774880,1749,952,875,9512,4612,-5828,-1424,-15942,-27271
774890,1750,931,857,18192,5192,84,-1408,-25162,-27583
774900,1759,954,867,19516,7320,7024,-1424,-18610,-19983
774910,1747,955,875,25176,5772,5144,-1360,-1990,-14987
774920,1747,955,875,23416,2100,-804,-1424,8342,-6825
774930,1751,957,865,18852,2760,-2908,-1392,9637,4769
774940,1755,958,853,15704,6128,-1492,-1408,9111,12474
774950,1750,959,857,13780,9448,-3304,-1408,11452,12819
774960,1749,959,858,13204,12192,-4272,-1408,13670,7672
774970,1701,959,869,14892,14436,-4136,-1408,12692,52
774980,1749,957,869,16328,13912,-6568,-1392,4751,-6517
774990,1751,955,879,16104,12296,-6912,-1440,-6582,-8727
775000,1751,956,873,16244,10816,-3068,-1408,-10705,-7785
775010,1753,956,871,17544,8332,-1496,-1424,-8951,-6671
775020,1751,956,866,18468,7140,-556,-1440,-3477,-4779
775030,1755,956,867,18748,5520,-1304,-1424,800,-1958
775040,1752,957,861,18384,5284,-2452,-1408,2311,391
775050,1752,958,862,16904,5536,-3024,-1408,1942,1292
775060,1753,957,869,15288,6056,-2412,-1408,2183,1041
775070,1751,957,863,15144,6580,-3388,-1392,3893,-1292
775080,1749,941,859,15132,6384,-5108,-1424,4522,-4573
775090,1751,957,867,15748,6172,-5892,-1408,3172,-6254
775100,1750,957,870,17032,5744,-7096,-1408,638,-6718
775110,1749,957,863,17360,5204,-6664,-1424,-1992,-5647
775120,1749,955,867,17440,5156,-4924,-1440,-2716,-2712
775130,1748,956,861,16872,4724,-4440,-1424,-842,4
775140,1749,956,859,16388,4120,-5292,-1424,961,1008
775150,1750,951,871,15988,4108,-4928,-1408,1413,1157
775160,1751,956,862,16132,3828,-4060,-1392,971,844
775170,1749,957,831,15852,3680,-3984,-1424,299,-115
775180,1752,959,861,15544,3568,-3696,-1440,31,-848
775190,1749,957,869,15380,2776,-3680,-1424,-501,-831
775200,1751,959,869,15452,2240,-2356,-1440,-571,-500
775210,1752,956,852,15784,1692,-2300,-1456,174,-343
775220,1749,957,855,15976,968,-3964,-1392,441,-1020
775230,1764,957,859,15848,448,-4384,-1408,114,-1648
775240,1741,956,861,15888,-156,-3808,-1376,-867,-864
775250,1751,956,861,15808,-1348,-3284,-1440,-1868,190
775260,1749,954,859,15512,-2156,-2936,-1440,-3088,860
775270,1751,957,861,15244,-2608,-2740,-1408,-3907,1024
775280,1750,954,858,15200,-3484,-3548,-1408,-4524,278
775290,1754,957,867,14784,-4752,-3996,-1440,-5934,-826
775300,1753,957,874,14392,-4940,-3904,-1424,-6463,-1394
775310,1752,957,852,14872,-5500,-3956,-1440,-6028,-1670
775320,1749,957,856,14704,-6092,-4512,-1424,-4912,-2215
775330,1755,956,861,14844,-6032,-5104,-1440,-3344,-2639
775340,1751,959,859,15276,-5620,-5248,-1408,-1441,-2456
775350,1755,955,857,15820,-4868,-4856,-1392,437,-1895
775360,1749,967,861,16276,-4028,-5472,-1392,1679,-1136
775370,1747,963,867,16496,-3200,-5856,-1424,1455,-385
775380,1750,957,871,16524,-2360,-4732,-1424,875,352
775390,1751,959,871,16380,-2528,-4168,-1408,166,851
775400,1755,956,861,16452,-2588,-4240,-1392,-228,339
775410,1750,959,844,16144,-2532,-4216,-1424,-113,-500
775420,1752,955,862,16172,-2724,-4520,-1408,448,-1303
775430,1751,957,855,16668,-2964,-4452,-1392,651,-1587
775440,1749,957,869,16760,-2664,-4668,-1440,887,-1244
775450,1752,957,862,16336,-2248,-5880,-1376,1890,-824
775460,1749,965,855,16280,-1160,-6568,-1424,3381,-548
775470,1750,968,857,16440,-80,-6936,-1440,4471,-347
775480,1748,971,854,16656,844,-6668,-1408,4645,-47
775490,1749,979,855,16740,1224,-6268,-1408,3782,670
775500,1753,967,859,16592,852,-5156,-1440,1640,1585
775510,1770,969,860,16128,-436,-4400,-1424,-964,1981
775520,1751,981,856,15812,-2160,-4412,-1376,-2901,986
775530,1749,997,867,15680,-3364,-3644,-1408,-3557,-542
775540,1749,1007,871,15816,-4792,-3736,-1424,-3238,-1481
775550,1752,999,873,16100,-5848,-4044,-1408,-2774,-1640
775560,1755,1005,880,16340,-6500,-4936,-1392,-2737,-1012
775570,1749,998,877,16368,-7192,-5740,-1424,-2979,-256
775580,1751,987,884,16208,-7132,-6152,-1408,-2580,321
775590,1752,999,875,15788,-6832,-6092,-1392,-981,750
775600,1751,971,871,15692,-6128,-5836,-1392,1669,950
775610,1751,927,867,15816,-4372,-5964,-1424,4412,1136
775620,1750,952,876,16924,-2760,-6552,-1424,5427,1049
775630,1748,927,867,17652,116,-5864,-1408,5974,431
775640,1749,860,869,17392,2688,-5264,-1392,6929,1310
775650,1749,945,883,16928,2464,-6224,-1424,4533,3449
775660,1751,931,875,16056,1044,-6444,-1392,-632,4642
775670,1752,969,867,15000,-188,-4556,-1392,-4313,4046
775680,1750,969,859,15024,-468,-3284,-1408,-4425,2384
775690,1750,925,857,15524,-892,-2672,-1408,-2574,635
775700,1751,908,861,16436,-1512,-2164,-1440,-678,18
775710,1751,907,869,17116,-2004,-2052,-1376,-198,737
775720,1750,925,865,17156,-1880,-2156,-1392,-553,2071
775730,1751,947,860,16380,-1624,-2052,-1408,106,2743
775740,1753,948,856,15612,-676,-2188,-1408,2069,2763
775750,1753,921,854,15500,504,-3140,-1424,3654,1774
775760,1751,942,855,15656,1444,-3804,-1440,3774,760
775770,1750,967,861,16104,1908,-3544,-1408,2614,439
775780,1751,999,861,16340,1996,-3756,-1408,1095,626
775790,1749,997,855,16520,1844,-4012,-1408,-534,841
775800,1748,979,860,16448,1496,-3692,-1392,-1173,635
775810,1747,989,868,16768,1192,-2824,-1408,-885,296
775820,1749,981,867,17084,968,-2312,-1392,-215,157
775830,1748,967,871,16932,500,-3376,-1408,-100,193
775840,1748,983,867,16816,288,-3660,-1408,-750,294
775850,1753,915,854,16672,-16,-2792,-1424,-385,211
775860,1750,931,851,16816,888,-3392,-1392,1180,-190
775870,1748,965,845,17024,2004,-4656,-1392,2383,-266
775880,1749,984,857,16940,2480,-5116,-1392,1787,525
775890,1749,984,857,16648,2308,-5448,-1408,-380,1345
775900,1749,990,856,16000,1584,-5344,-1392,-2646,1490
775910,1749,1020,860,15796,636,-5148,-1392,-4121,1018
775920,1751,1067,867,15580,-668,-4388,-1408,-4486,354
775930,1749,1093,861,15876,-1892,-3736,-1392,-4165,68
775940,1749,987,857,16180,-2540,-3484,-1424,-3682,453
775950,1747,948,861,16256,-2688,-3296,-1424,-2736,926
775960,1763,911,868,16072,-2668,-2924,-1424,-1452,1246
775970,1751,894,863,16204,-2608,-2984,-1376,-571,1106
775980,1751,904,851,16116,-2148,-3164,-1376,-356,869
775990,1749,921,856,16284,-1728,-3056,-1376,-148,610
776000,1751,938,855,16480,-960,-2856,-1408,417,417
776010,1751,926,873,16324,-312,-3156,-1424,1063,470
776020,1751,935,859,16448,-20,-3508,-1408,1116,666
776030,1751,937,857,16420,204,-3224,-1408,695,783
776040,1749,941,857,16280,-8,-3412,-1424,140,673
776050,1750,936,857,16248,24,-3440,-1440,-222,305
776060,1752,952,856,16376,-56,-3200,-1376,-21,-83
776070,1751,958,854,16772,-28,-3256,-1376,226,-56
776080,1751,924,861,16764,60,-3256,-1376,227,396
776090,1753,972,863,16748,144,-3480,-1408,82,764
776100,1751,969,859,16480,-84,-3396,-1408,-220,606
776110,1749,958,857,16380,-316,-3408,-1408,-529,185
776120,1751,955,859,16488,-480,-3500,-1392,-771,-146
776130,1750,953,859,16684,-536,-3532,-1408,-743,-120
776140,1751,943,859,16844,-576,-3500,-1440,-491,161
776150,1749,951,859,16752,-352,-3860,-1376,-419,268
776160,1749,956,860,16548,-376,-4056,-1408,-563,658
776170,1750,955,863,16240,-396,-4116,-1392,-903,683
776180,1766,977,859,16188,-748,-3660,-1408,-1154,465
776190,1751,979,859,16284,-788,-3544,-1392,-1127,176
776200,1749,979,857,16472,-652,-3580,-1376,-679,-7
776210,1749,987,860,16616,-476,-3364,-1408,-190,31
776220,1749,975,860,16828,-492,-3104,-1392,52,316
776230,1750,954,859,16456,-320,-3364,-1392,156,556
776240,1743,965,859,16340,-208,-3848,-1392,-26,492
776250,1749,968,859,16244,-504,-3368,-1424,-313,192
776260,1749,965,859,16288,-368,-3320,-1408,-339,-66
776270,1750,950,825,16528,-392,-3488,-1392,-89,-177
776280,1749,979,859,16724,-340,-3660,-1392,174,-24
776290,1751,947,859,16768,-160,-3380,-1408,325,308
776300,1757,954,861,16532,-304,-3776,-1424,280,426
776310,1749,955,862,16380,-424,-3712,-1424,-91,354
776320,1783,948,859,16324,-576,-3768,-1392,-423,135
776330,1748,947,856,16376,-556,-3664,-1392,-201,-45
776340,1750,959,858,16516,-448,-3656,-1376,134,116
776350,1750,967,859,16564,-312,-3756,-1392,231,402
776360,1751,965,858,16396,-220,-3712,-1392,100,628
776370,1751,964,861,16432,-56,-3876,-1376,-15,550
776380,1749,1006,863,16464,-432,-3644,-1424,32,325
776390,1751,995,859,16488,-340,-3376,-1376,250,267
776400,1750,980,859,16556,-228,-3332,-1392,706,274
776410,1750,967,859,16760,76,-3328,-1392,929,303
776420,1749,939,859,16560,48,-3504,-1408,736,369
776430,1750,965,857,16500,48,-3688,-1408,312,418
776440,1750,967,857,16348,96,-3728,-1408,71,315
776450,1751,956,857,16352,-92,-3788,-1392,20,164
776460,1751,954,855,16460,-224,-4032,-1392,-178,136
776470,1751,967,859,16532,-256,-3808,-1376,-306,252
776480,1749,987,855,16772,-464,-3488,-1392,-221,418
776490,1752,983,861,16748,-628,-3608,-1392,-283,388
776500,1751,955,860,16660,-884,-3144,-1376,-305,343
776510,1751,954,857,16412,-1352,-3308,-1424,-339,381
776520,1751,974,857,16340,-1392,-3624,-1408,-410,250
776530,1749,949,859,16340,-1396,-3544,-1440,-208,131
776540,1749,957,863,16488,-1456,-3564,-1408,122,78
776550,1751,969,862,16612,-1180,-3420,-1408,420,15
776560,1752,952,860,16652,-612,-3428,-1408,897,227
776570,1750,949,860,16656,-376,-3712,-1376,787,374
776580,1749,947,859,16568,-40,-3836,-1408,272,451
776590,1751,935,859,16488,-176,-3412,-1424,34,316
776600,1751,946,857,16384,-180,-3504,-1376,-24,81
776610,1751,955,858,16528,-388,-3792,-1408,-13,-32
776620,1750,969,857,16748,-460,-3496,-1392,118,29
776630,1752,959,857,16604,-644,-3320,-1440,452,233
776640,1751,955,856,16524,-564,-3620,-1440,600,381
776650,1749,960,858,16356,-564,-3412,-1408,499,347
776660,1749,956,854,16352,-408,-3596,-1408,321,161
776670,1751,980,857,16304,-628,-3292,-1408,226,43
776680,1751,953,856,16544,-680,-3608,-1408,232,16
776690,1769,959,855,16488,-672,-3692,-1408,281,138
776700,1739,965,858,16544,-548,-3704,-1408,377,268
776710,1749,959,859,16548,-500,-3716,-1408,361,408
776720,1749,949,858,16436,-448,-3744,-1424,210,368
776730,1749,965,859,16364,-452,-3708,-1408,68,289
776740,1751,968,857,16348,-500,-3580,-1376,-5,267
776750,1750,980,857,16432,-572,-3712,-1408,-56,264
776760,1750,969,858,16408,-588,-3628,-1408,-35,320
776770,1751,979,857,16428,-572,-3340,-1424,48,474
776780,1749,957,857,16464,-588,-3200,-1408,19,533
776790,1749,935,859,16400,-700,-3460,-1376,-126,426
776800,1751,945,857,16428,-756,-3468,-1408,-22,207
776810,1751,991,858,16516,-600,-3488,-1440,415,100
776820,1751,995,856,16568,-436,-3500,-1392,856,177
776830,1751,922,859,16744,-244,-3816,-1408,910,454
776840,1749,725,856,16684,-188,-3508,-1408,528,706
776850,1749,817,857,16468,-552,-3980,-1392,16,615
776860,1749,915,858,16536,-572,-3692,-1408,-511,431
776870,1749,989,857,16412,-536,-3664,-1424,-325,232
776880,1751,1041,857,16584,-796,-3900,-1376,-156,170
776890,1750,1140,856,16548,-768,-3800,-1376,-80,352
776900,1743,1069,856,16704,-516,-3304,-1392,107,589
776910,1747,1047,856,16496,-508,-3672,-1392,177,673
776920,1750,1021,856,16388,-432,-3736,-1424,-3,563
776930,1751,1033,855,16440,-400,-3464,-1440,-265,373
776940,1747,1117,855,16492,-384,-3400,-1424,-367,234
776950,1750,991,858,16544,-412,-3464,-1424,-218,206
776960,1749,989,859,16728,-464,-3412,-1392,-20,355
776970,1717,989,857,16560,-444,-3388,-1440,110,413
776980,1749,983,854,16512,-432,-3368,-1392,167,414
776990,1749,979,856,16584,-400,-3488,-1408,93,340
777000,1748,939,855,16464,-368,-3356,-1456,-13,225
777010,1749,957,869,16576,-248,-3500,-1392,-48,207
777020,1749,953,856,16504,-348,-3532,-1408,-147,231
777030,1749,943,859,16548,-452,-3632,-1424,-271,235
777040,1749,939,855,16440,-632,-3560,-1424,-269,168
777050,1751,952,857,16496,-960,-3500,-1424,-220,179
777060,1752,951,856,16472,-864,-3452,-1424,-151,216
777070,1751,939,856,16536,-732,-3600,-1408,21,208
777080,1749,969,859,16708,-596,-3416,-1392,183,273
777090,1748,971,859,16496,-596,-3344,-1392,46,327
777100,1750,971,858,16512,-716,-3572,-1408,-328,265
777110,1751,959,859,16376,-796,-3296,-1392,-319,158
777120,1751,957,857,16376,-720,-3588,-1376,21,106
777130,1748,971,855,16532,-652,-3716,-1392,218,150
777140,1751,949,859,16564,-616,-3596,-1392,258,324
777150,1748,931,858,16612,-408,-3620,-1376,139,427
777160,1751,946,859,16584,-396,-3588,-1408,-46,383
777170,1751,939,857,16428,-724,-3352,-1408,-231,250
777180,1751,948,857,16492,-844,-3684,-1408,-433,160
777190,1751,949,855,16456,-836,-3360,-1424,-115,139
777200,1749,958,856,16616,-812,-3368,-1408,458,181
777210,1751,974,855,16580,-600,-3404,-1408,681,355
777220,1751,960,855,16568,-364,-3496,-1424,432,505
777230,1749,959,889,16460,-332,-3752,-1408,91,335
777240,1751,953,855,16576,-404,-3516,-1408,-129,107
777250,1741,967,857,16476,-436,-3496,-1376,-162,123
777260,1751,953,859,16464,-392,-3384,-1408,179,198
777270,1748,950,857,16668,-536,-3596,-1424,204,220
777280,1749,971,855,16604,-688,-3572,-1408,-268,383
777290,1753,1019,856,16392,-680,-3328,-1408,-335,415
777300,1749,957,856,16448,-548,-3352,-1392,65,221
777310,1749,959,854,16460,-632,-3464,-1408,344,140
777320,1750,959,855,16596,-544,-3512,-1392,229,262
777330,1741,958,853,16464,-296,-3412,-1408,30,321
777340,1749,953,855,16492,-304,-3084,-1376,137,321
777350,1750,952,855,16472,-300,-3280,-1392,267,258
777360,1751,953,854,16504,-280,-3476,-1408,188,38
777370,1749,959,856,16528,-272,-3588,-1424,-110,108
777380,1749,965,856,16672,-240,-3416,-1408,-268,231
777390,1749,973,847,16528,-348,-3516,-1408,-65,236
777400,1751,977,856,16484,-332,-3512,-1424,142,189
777410,1750,965,853,16512,-272,-3500,-1424,181,213
777420,1749,958,853,16624,-188,-3488,-1392,-70,284
777430,1749,959,855,16500,-284,-3544,-1392,-400,341
777440,1748,955,855,16368,-416,-3324,-1408,-583,248
777450,1749,960,856,16588,-580,-3188,-1392,-468,150
777460,1751,971,855,16512,-712,-3144,-1424,-223,90
777470,1749,955,855,16604,-652,-3228,-1376,55,103
777480,1751,959,856,16596,-596,-3408,-1424,229,115
777490,1751,968,856,16580,-552,-3268,-1392,320,162
777500,1749,965,855,16460,-320,-3416,-1392,300,172
777510,1749,952,857,16436,-264,-3704,-1424,185,124
777520,1749,959,855,16404,-360,-3732,-1408,58,157
777530,1751,960,856,16472,-248,-3680,-1392,-75,229
777540,1751,968,855,16556,-264,-3576,-1424,-177,254
777550,1749,972,855,16508,-364,-3540,-1376,-212,276
777560,1747,967,856,16596,-268,-3588,-1456,-238,269
777570,1749,958,854,16500,-320,-3448,-1408,-246,278
777580,1750,953,855,16456,-316,-3364,-1424,-239,263
777590,1751,955,855,16544,-408,-3196,-1392,-177,263
777600,1751,953,866,16496,-500,-3408,-1408,-241,264
777610,1751,957,854,16512,-460,-3460,-1408,-220,202
777620,1749,957,853,16556,-540,-3416,-1408,-86,104
777630,1766,957,854,16596,-440,-3364,-1440,125,155
777640,1749,954,853,16568,-428,-3728,-1408,212,290
777650,1749,954,855,16536,-264,-3560,-1440,-6,347
777660,1749,965,855,16516,-284,-3396,-1408,-124,332
777670,1749,959,853,16472,-296,-3588,-1424,-188,274
777680,1750,959,855,16420,-344,-3580,-1408,-293,234
777690,1748,965,853,16432,-164,-3388,-1424,-261,216
777700,1749,960,855,16584,-280,-3332,-1408,-218,290
777710,1749,965,854,16448,-572,-3528,-1408,-393,314
777720,1751,982,853,16556,-472,-3308,-1392,-267,241
777730,1745,953,851,16532,-376,-3240,-1456,-37,163
777740,1749,957,854,16736,-420,-3612,-1424,53,183
777750,1749,968,853,16600,-296,-3684,-1440,140,138
777760,1751,971,855,16552,-72,-3612,-1440,73,268
777770,1748,973,859,16504,-60,-3640,-1392,-115,508
777780,1751,969,855,16396,-380,-3520,-1424,-450,390
777790,1739,969,854,16564,-384,-3604,-1424,-650,163
777800,1748,965,855,16660,-644,-3220,-1424,-534,114
777810,1749,967,855,16604,-528,-3288,-1408,-317,259
777820,1749,957,852,16632,-484,-3428,-1424,56,435
777830,1751,959,855,16536,-408,-3376,-1424,225,434
777840,1751,953,852,16548,-268,-3280,-1408,103,474
777850,1751,947,853,16416,-312,-3440,-1424,-111,374
777860,1749,950,854,16420,-488,-3452,-1424,-412,89
777870,1751,959,856,16520,-668,-3396,-1424,-429,-9
777880,1751,984,854,16664,-696,-3472,-1424,-86,140
777890,1751,981,855,16748,-400,-3468,-1440,436,327
777900,1751,982,857,16528,-160,-3744,-1424,609,461
777910,1749,985,853,16412,28,-3524,-1424,139,511
777920,1749,981,854,16348,52,-3356,-1424,-325,540
777930,1749,981,853,16188,244,-3016,-1392,-532,560
777940,1750,936,861,16484,140,-3268,-1440,-815,379
777950,1752,932,855,16568,-468,-3548,-1424,-1652,29
777960,1751,944,853,16588,-832,-3324,-1424,-1716,-88
777970,1749,984,851,16564,-792,-2992,-1408,-602,188
777980,1748,1050,853,16604,-560,-2616,-1456,612,763
777990,1748,955,855,16536,-228,-2508,-1440,855,1016
778000,1750,921,856,16420,-588,-3384,-1424,-317,640
778010,1751,921,853,16236,-896,-4020,-1424,-1674,-181
778020,1750,931,853,16412,-792,-3728,-1440,-1159,-808
778030,1748,967,851,16864,-520,-3708,-1408,864,-689
778040,1752,985,851,16988,256,-4520,-1408,2160,290
778050,1751,1000,854,16900,864,-4796,-1408,1819,1366
778060,1750,997,854,16448,884,-4728,-1424,255,1797
778070,1748,995,853,16192,492,-4336,-1440,-1386,1231
778080,1750,997,851,16116,-260,-4032,-1408,-2198,262
778090,1750,969,853,16488,-828,-3100,-1440,-1924,-219
778100,1752,953,853,16932,-1492,-2956,-1408,-962,-14
778110,1751,941,855,17048,-1684,-3020,-1440,107,713
778120,1749,943,853,16720,-1376,-3380,-1440,932,1300
778130,1749,975,855,16508,-1112,-3808,-1408,1244,1296
778140,1749,971,851,16408,-640,-4024,-1392,1014,990
778150,1749,965,855,16496,-548,-4428,-1408,242,693
778160,1751,957,857,16564,-948,-4588,-1392,-650,858
778170,1749,968,861,16692,-1552,-4728,-1440,-1272,884
778180,1749,982,859,16700,-2032,-4516,-1408,-1249,1216
778190,1749,985,856,16600,-2300,-4476,-1424,-776,1661
778200,1748,995,857,16688,-2620,-4580,-1424,-561,2025
778210,1749,1003,859,16668,-2936,-4104,-1440,-876,2144
778220,1749,997,851,16764,-3132,-3076,-1408,-1326,2254
778230,1748,940,858,16820,-3632,-3128,-1392,-1881,2226
778240,1750,765,867,16720,-4328,-3048,-1424,-2331,1947
778250,1751,889,859,16488,-4824,-3088,-1392,-2163,1697
778260,1750,891,863,16476,-5624,-3400,-1440,-1957,1580
778270,1751,924,868,16492,-5600,-3980,-1424,-1180,1260
778280,1747,974,852,16672,-5492,-3152,-1376,444,1020
778290,1750,934,846,17088,-5052,-2968,-1392,2226,1366
778300,1749,905,847,16916,-4828,-4356,-1424,2685,1782
778310,1751,684,844,17256,-4540,-4428,-1408,1434,1978
778320,1748,1144,845,17464,-4740,-3468,-1376,-467,2215
778330,1749,1049,851,17920,-4868,-3484,-1408,-2594,2238
778340,1749,997,843,18536,-4520,-2756,-1408,-3891,1479
778350,1747,981,843,19600,-3448,-1664,-1408,-3323,139
778360,1749,973,842,21300,-1188,-1876,-1440,-2030,-1576
778370,1751,969,837,22152,1328,-2320,-1408,-1349,-3027
778380,1749,965,846,24128,2772,-5224,-1424,-2202,-3924
778390,1749,967,845,27200,1572,-9284,-1408,-8659,-4949
778400,1751,971,845,27740,-1888,-9752,-1392,-17553,-4031
778410,1752,960,855,28768,-5000,-3712,-1456,-22927,1317
778420,1749,967,866,26308,-6048,-176,-1408,-19438,9333
778430,1751,967,851,23460,-5752,-996,-1392,-8820,13185
778440,1709,938,819,22268,-3152,-1716,-1392,2968,11940
778450,1751,947,807,23296,1084,-5584,-1424,8057,6734
778460,1755,965,819,23348,7224,-6732,-1424,7822,1716
778470,1749,1053,845,24892,9936,-7508,-1376,795,1561
778480,1748,957,827,27376,12500,-7756,-1456,-9085,1814
778490,1749,959,839,26764,12464,-7636,-1408,-17918,2205
778500,1746,965,851,25176,11360,-6380,-1456,-20796,942
778510,1748,968,869,23388,9256,-2580,-1392,-18621,2073
778520,1743,969,861,23288,7940,1388,-1408,-16060,7072
778530,1745,966,845,22380,7528,4408,-1408,-13070,12788
778540,1739,979,842,20736,7772,4124,-1408,-8868,15132
778550,1747,967,851,18392,6716,3296,-1408,-5030,14564
778560,1743,967,865,15964,5924,4380,-1424,-1416,13209
778570,1751,965,868,12996,5352,6096,-1408,2528,12142
778580,1754,969,860,11876,5832,6128,-1440,7273,11267
778590,1752,967,857,10284,6960,4900,-1456,11091,9743
778600,1715,965,858,8144,7348,2856,-1440,13168,8432
778610,1749,958,851,6264,8352,272,-1424,13480,6784
778620,1750,960,829,5704,9364,-296,-1440,12799,4366
778630,1747,965,847,4492,9672,-672,-1440,11025,2001
778640,1747,960,843,3944,9644,-1408,-1424,8166,322
778650,1752,960,843,3436,9460,-612,-1424,4338,34
778660,1753,965,843,3480,8348,1012,-1424,1358,1070
778670,1751,965,847,3484,7516,2216,-1408,436,2049
778680,1746,964,845,2624,5968,3144,-1408,985,2076
778690,1752,966,845,1936,4808,2748,-1392,2487,1449
778700,1747,959,849,1716,4232,2044,-1392,3580,794
778710,1749,965,853,1732,4528,1324,-1424,3802,767
778720,1748,964,855,2124,4772,1052,-1424,3712,1259
778730,1748,965,853,2612,4884,1036,-1408,3345,2045
778740,1751,965,853,2672,5428,1244,-1456,2285,2207
778750,1749,965,851,2784,5996,1748,-1392,2051,2687
778760,1749,959,853,2988,5884,1404,-1440,1555,3553
778770,1749,960,853,3224,5852,556,-1456,678,3759
778780,1749,958,853,3464,5456,384,-1424,154,3049
778790,1750,965,852,4076,5032,328,-1424,269,1697
778800,1747,965,847,5404,4748,1168,-1392,776,-116
778810,1765,965,853,6084,4752,800,-1408,1547,-2763
778820,1748,979,857,8996,5384,2016,-1424,3567,-5156
778830,1753,965,860,10448,5800,1292,-1424,3875,-6423
778840,1751,953,855,12396,5912,948,-1408,3340,-7121
778850,1752,959,853,14316,5680,816,-1392,3043,-7928
778860,1753,959,851,15668,6208,620,-1408,4291,-9088
778870,1751,959,841,16032,6976,476,-1424,6818,-9433
778880,1755,959,839,16304,7576,-1044,-1424,9173,-8647
778890,1753,959,845,16624,7828,-2760,-1408,9698,-7069
778900,1753,960,851,17580,8176,-4032,-1376,8026,-5311
778910,1743,955,850,17992,8300,-3568,-1440,5369,-3720
778920,1750,965,851,17456,8312,-3500,-1424,2996,-2137
778930,1749,965,850,16128,7876,-3256,-1392,774,-502
778940,1749,979,851,15100,7660,-2800,-1440,-563,793
778950,1752,967,851,13760,7432,-2712,-1440,-1150,1383
778960,1751,966,850,12636,7044,-2596,-1408,-1566,1263
778970,1753,969,839,11780,6360,-2684,-1440,-1868,755
778980,1737,967,879,28652,4284,-8856,-1392,-4628,-8692
778990,1746,969,843,32767,-168,-15924,-1408,-14097,-32768
779000,1741,957,934,32767,-10988,-7808,-1440,-26969,-32768
779010,1723,959,808,29528,-10224,7096,-1424,-26220,-8451
779020,1749,969,689,13092,-2244,13588,-1440,-536,24108
779030,1743,970,852,3508,5424,8384,-1424,24959,32767
779040,1756,959,926,-740,8220,-1736,-1424,32767,32767
779050,1757,959,890,15572,5756,-5800,-1408,30508,32767
779060,1747,959,862,22400,7728,-27660,-1408,-3208,21073
779070,1741,960,863,9280,4676,9004,-1392,-23971,-11523
779080,1753,965,814,10732,7396,4828,-1392,-19105,-21916
779090,1755,958,855,996,8820,-12792,-1392,-13777,-32768
779100,1752,955,829,9364,452,8372,-1408,-3923,-32768
779110,1756,959,853,22512,7396,-2712,-1392,4507,-27366
779120,1749,959,837,27240,5416,-1116,-1440,7849,-18115
779130,1743,965,855,25188,7244,-4900,-1424,7092,-6527
779140,1743,965,859,19764,8188,-5228,-1456,5515,5990
779150,1739,959,841,14928,9084,-3920,-1440,5803,13918
779160,1749,967,842,12860,9548,-4648,-1472,7159,15460
779170,1751,967,850,13204,9824,-4684,-1408,5814,11575
779180,1749,967,853,14104,10936,-1476,-1440,1901,4843
779190,1749,946,846,14516,11160,-552,-1408,-1986,-2592
779200,1749,960,847,15248,9928,-472,-1440,-5075,-8946
779210,1750,965,853,15612,9104,404,-1472,-5077,-11998
779220,1752,958,852,16428,7568,1132,-1424,-3448,-11562
779230,1752,965,851,16768,7104,1296,-1440,20,-8608
779240,1753,964,849,17376,6504,-248,-1424,4014,-5833
779250,1751,965,845,17612,5756,-3700,-1408,5792,-4935
779260,1750,942,847,17044,5612,-4936,-1440,4668,-3964
779270,1751,950,846,16324,6836,-5056,-1424,3504,-3039
779280,1749,964,847,15660,7096,-6408,-1456,3130,-3373
779290,1749,964,853,15548,6812,-7416,-1456,2380,-4221
779300,1751,972,854,15756,6312,-7708,-1456,598,-4658
779310,1747,966,863,16076,5372,-8380,-1440,-1695,-4377
779320,1749,960,846,16028,4396,-7712,-1424,-2786,-3716
779330,1750,965,845,16752,3472,-6444,-1392,-2569,-2621
779340,1749,959,843,17236,2624,-5964,-1424,-736,-2153
779350,1747,964,843,16752,1836,-4948,-1424,1105,-1268
779360,1748,964,839,16112,2244,-3632,-1440,3627,483
779370,1749,967,841,16064,2640,-4188,-1440,5542,1438
779380,1748,964,837,15880,3088,-4380,-1408,5873,1043
779390,1750,965,847,15944,3348,-4124,-1440,4633,670
779400,1749,965,845,16184,2916,-4572,-1392,2327,-130
779410,1749,956,850,16064,1900,-4156,-1408,21,-991
779420,1749,965,851,15996,936,-2880,-1440,-1211,-1239
779430,1752,916,851,15608,68,-2772,-1424,-974,-1079
779440,1749,965,844,15628,-1072,-3992,-1440,-766,-1225
779450,1749,965,855,15464,-1760,-4264,-1440,-701,-1635
779460,1749,964,846,15724,-1700,-3072,-1440,-174,-1348
779470,1751,965,845,15984,-1372,-2884,-1440,832,-608
779480,1749,965,845,15812,-796,-3824,-1456,1627,-421
779490,1747,913,843,15900,-1004,-4916,-1440,1125,-636
779500,1750,965,850,15588,-936,-4824,-1424,-414,-772
779510,1751,965,842,15740,-212,-3244,-1408,-993,-272
779520,1748,960,845,15800,4,-3704,-1440,-360,-10
779530,1751,967,850,15608,496,-4292,-1424,205,-533
779540,1751,959,845,15988,744,-4624,-1392,12,-935
779550,1749,959,852,16496,308,-4924,-1424,-1183,-911
779560,1747,959,844,16760,236,-4060,-1424,-1877,-590
779570,1752,966,838,16576,96,-4092,-1440,-1030,-372
779580,1747,965,845,16232,-180,-4968,-1424,-41,-464
779590,1751,964,842,16220,404,-4180,-1424,967,-231
779600,1751,964,840,16592,856,-4448,-1408,1623,-77
779610,1749,965,841,16520,1008,-5352,-1424,855,-351
779620,1749,965,852,16348,1332,-4548,-1424,-413,-200
779630,1747,955,846,16468,1196,-4876,-1424,-1511,16
779640,1751,966,851,16072,304,-6092,-1392,-2866,-296
779650,1762,965,851,16072,-8,-4924,-1440,-3159,-533
779660,1749,923,850,16284,-232,-4760,-1424,-2110,-648
779670,1750,964,822,16112,-244,-5372,-1424,-872,-738
779680,1749,965,841,16276,-160,-5552,-1408,-490,-403
779690,1751,964,841,16404,-220,-5140,-1392,-830,262
779700,1749,965,845,16392,-432,-4648,-1440,-1481,828
779710,1749,967,846,16132,-788,-4500,-1408,-1717,915
779720,1748,965,829,15904,-820,-4364,-1424,-1426,479
779730,1749,967,840,15880,-1012,-5016,-1408,-1610,-158
779740,1739,965,843,15984,-1336,-5044,-1408,-2203,-463
779750,1749,964,849,15964,-1828,-5140,-1440,-2765,-364
779760,1749,979,850,16160,-2096,-5600,-1408,-3122,-320
779770,1739,966,846,16076,-2360,-5328,-1408,-3013,-347
779780,1752,967,843,16424,-2044,-5176,-1424,-2240,-126
779790,1751,959,843,16620,-1664,-5252,-1424,-1229,206
779800,1749,965,852,16776,-1892,-6356,-1440,-914,109
779810,1749,965,849,16596,-1860,-6332,-1408,-1205,333
779820,1749,964,842,16472,-1228,-5980,-1392,-568,1064
779830,1747,965,849,16024,-524,-6192,-1408,689,1786
779840,1749,965,843,16328,160,-6256,-1424,1329,2244
779850,1747,965,854,16468,64,-6748,-1424,736,2116
779860,1748,960,856,16296,-260,-6408,-1408,-518,1821
779870,1747,957,849,16432,-500,-5324,-1456,-1049,1797
779880,1751,965,845,16704,-164,-4792,-1392,-256,1939
779890,1748,958,847,16652,28,-4676,-1424,831,2199
779900,1749,968,851,16708,80,-4320,-1440,961,2583
779910,1749,967,853,16484,-368,-3596,-1408,163,2906
779920,1751,966,854,16100,-784,-3244,-1424,-1128,3134
779930,1755,959,852,15676,-1236,-3140,-1424,-2295,2765
779940,1749,965,847,15448,-2040,-3124,-1408,-2885,1919
779950,1749,967,845,15452,-2356,-2796,-1424,-2464,1195
779960,1751,958,847,15848,-2208,-2632,-1408,-1256,795
779970,1749,959,845,16296,-1636,-2648,-1392,503,846
779980,1751,964,850,16620,-612,-3352,-1424,2006,1319
779990,1749,965,850,16708,1016,-3696,-1440,2571,1973
780000,1749,965,850,16476,1868,-3636,-1424,2506,2385
780010,1749,966,844,16320,2576,-3988,-1408,1939,2361
780020,1751,967,843,16008,2724,-4204,-1424,566,2038
780030,1749,967,843,16020,2508,-3964,-1424,-1096,1567
780040,1747,959,843,16280,1864,-3344,-1440,-2364,1121
780050,1749,959,844,16536,1212,-3008,-1408,-2585,694
780060,1748,959,829,16808,748,-2572,-1408,-1800,634
780070,1749,965,840,17004,596,-2464,-1408,-338,783
780080,1749,967,841,17000,940,-2500,-1392,1271,969
780090,1749,959,839,16932,1316,-2900,-1408,2233,1257
780100,1749,965,845,16600,1964,-3408,-1408,2156,1433
780110,1749,965,841,16304,2288,-3572,-1392,1442,1347
780120,1750,958,845,16108,2044,-3980,-1408,-30,996
780130,1735,980,845,15960,1220,-3884,-1424,-1782,649
780140,1749,966,846,15868,464,-3684,-1440,-2715,352
780150,1749,965,845,16132,-20,-3192,-1408,-2356,144
780160,1747,965,842,16288,-392,-3004,-1408,-1238,228
780170,1747,966,845,16640,-184,-3260,-1392,-362,684
780180,1749,967,845,16652,288,-3528,-1424,-115,1113
780190,1750,953,843,16548,328,-3616,-1408,-448,1234
780200,1749,966,845,16316,216,-3712,-1440,-930,1048
780210,1751,967,843,16304,124,-3588,-1424,-1204,680
780220,1750,990,841,16364,336,-3436,-1376,-948,437
780230,1751,957,843,16612,268,-3604,-1456,-700,527
780240,1749,968,845,16644,120,-3344,-1424,-914,871
780250,1751,964,846,16448,-232,-3224,-1392,-1189,1038
780260,1751,953,845,16264,-508,-2984,-1424,-1146,853
780270,1751,959,855,16312,-596,-3168,-1392,-814,556
780280,1748,959,842,16488,-548,-2892,-1408,-341,322
780290,1751,958,843,16664,-328,-3192,-1440,179,384
780300,1749,968,845,16732,36,-3196,-1424,388,634
780310,1751,965,845,16724,476,-3384,-1392,333,839
780320,1752,967,845,16412,632,-3696,-1424,61,765
780330,1771,967,843,16392,592,-3616,-1408,-365,597
780340,1749,966,843,16360,484,-3476,-1424,-622,466
780350,1747,971,849,16560,312,-3588,-1424,-755,438
780360,1749,972,843,16564,-28,-3432,-1392,-967,530
780370,1751,969,841,16536,-188,-3368,-1392,-1178,622
780380,1749,985,843,16612,-432,-3168,-1408,-1196,556
780390,1749,968,843,16568,-452,-2824,-1392,-806,451
780400,1751,970,839,16516,-536,-3024,-1392,-306,400
780410,1748,951,845,16632,-412,-3264,-1440,-97,404
780420,1750,955,846,16668,-172,-2976,-1424,115,209
780430,1749,955,843,16808,-92,-3004,-1408,329,218
780440,1749,957,842,16720,412,-3320,-1392,575,443
780450,1747,957,842,16532,592,-3768,-1392,737,572
780460,1749,973,842,16660,816,-3580,-1376,283,539
780470,1751,966,841,16328,692,-3628,-1376,-504,471
780480,1749,969,844,16340,316,-3700,-1408,-1197,366
780490,1749,956,845,16488,-44,-3536,-1440,-1478,168
780500,1749,971,841,16520,-332,-3240,-1424,-1312,135
780510,1749,971,839,16696,-512,-3056,-1408,-951,334
780520,1741,975,845,16672,-472,-3096,-1376,-597,531
780530,1749,979,841,16612,-476,-3068,-1392,-529,539
780540,1763,975,844,16564,-460,-3056,-1408,-587,462
780550,1749,967,843,16332,-600,-3240,-1408,-263,287
780560,1748,955,841,16420,-748,-3372,-1440,29,114
780570,1749,956,844,16528,-576,-3360,-1408,188,11
780580,1748,953,842,16720,-232,-3268,-1424,278,247
780590,1747,952,845,16620,-224,-3316,-1408,260,477
780600,1749,954,843,16680,-120,-3560,-1440,-86,562
780610,1749,955,844,16456,-220,-3420,-1408,-405,494
780620,1747,955,843,16396,-352,-3224,-1408,-467,244
780630,1749,952,793,16492,-336,-3324,-1456,-318,-3
780640,1751,969,842,16716,-168,-3328,-1376,-259,76
780650,1749,968,845,16760,-248,-3056,-1440,-229,364
780660,1749,959,849,16612,68,-3148,-1392,-174,568
780670,1749,965,841,16448,-52,-3088,-1408,-161,458
780680,1751,968,844,16432,-248,-3284,-1424,-492,246
780690,1751,952,844,16584,-452,-2924,-1408,-698,25
780700,1748,975,841,16436,-552,-2840,-1408,-346,-49
780710,1749,979,841,16832,-616,-2800,-1424,343,-91
780720,1749,969,823,16944,-264,-3044,-1424,572,-29
780730,1749,942,843,16696,-24,-2924,-1408,694,275
780740,1750,951,843,16468,-4,-3124,-1376,774,416
780750,1749,959,842,16272,344,-3552,-1424,524,199
780760,1748,952,841,16256,276,-3520,-1392,138,-79
780770,1749,954,841,16400,192,-3540,-1424,-231,-187
780780,1750,1002,841,16580,40,-3484,-1408,-328,-162
780790,1749,979,839,16548,-112,-3388,-1424,-261,-9
780800,1749,969,840,16644,-148,-3160,-1408,-267,289
780810,1749,966,841,16440,-240,-3192,-1408,-309,395
780820,1749,957,840,16400,-388,-3364,-1424,-315,240
780830,1751,969,843,16360,-428,-3296,-1408,-302,28
780840,1749,971,841,16368,-456,-3248,-1424,-299,-17
780850,1743,975,842,16564,-556,-3256,-1392,-205,-20
780860,1762,969,840,16656,-568,-3232,-1408,-15,45
780870,1749,958,843,16544,-396,-3088,-1408,178,191
780880,1749,947,841,16532,-300,-3392,-1408,416,258
780890,1748,950,851,16476,-172,-3396,-1408,335,258
780900,1749,957,840,16508,-160,-3484,-1456,23,169
780910,1741,954,843,16600,-204,-3412,-1408,-283,35
780920,1749,969,838,16560,-192,-3460,-1408,-319,-62
780930,1750,973,851,16632,-324,-3296,-1408,-326,26
780940,1747,971,840,16544,-172,-3328,-1376,-187,151
780950,1749,967,841,16524,-308,-3376,-1408,-9,156
780960,1749,967,841,16560,-388,-3352,-1440,-93,165
780970,1749,971,839,16520,-208,-3344,-1408,39,141
780980,1751,965,839,16520,-176,-3340,-1392,319,78
780990,1749,968,841,16548,-12,-3328,-1408,317,46
781000,1749,957,843,16580,-200,-3580,-1440,80,210
781010,1748,958,842,16640,-236,-3356,-1376,-292,228
781020,1749,974,843,16480,-328,-3360,-1408,-384,118
781030,1748,965,843,16540,-444,-3396,-1456,-6,-9
781040,1749,965,808,16524,-408,-3404,-1408,266,37
781050,1750,948,841,16636,-404,-3464,-1408,230,156
781060,1747,969,841,16520,-112,-3320,-1408,246,257
781070,1749,973,807,16616,8,-3304,-1440,189,267
781080,1749,967,843,16500,144,-3376,-1424,-37,234
781090,1753,954,843,16480,-72,-3540,-1408,-220,172
781100,1749,951,842,16552,-128,-3480,-1408,-247,37
781110,1749,974,837,16564,-336,-3444,-1424,-189,6
781120,1748,973,841,16664,-280,-3324,-1408,86,185
781130,1749,947,839,16616,-92,-3368,-1392,468,291
781140,1748,967,841,16596,60,-3360,-1392,546,301
781150,1721,967,841,16440,172,-3292,-1408,254,293
781160,1749,967,839,16512,400,-3088,-1392,-82,342
781170,1748,953,857,16444,160,-3444,-1408,-408,149
781180,1755,947,842,16488,-136,-3484,-1408,-651,-60
781190,1749,965,840,16564,-260,-3360,-1408,-520,-29
781200,1749,964,841,16536,-336,-3356,-1424,-36,83
781210,1749,967,838,16584,-272,-3456,-1424,437,136
781220,1749,970,841,16644,-92,-3476,-1440,570,293
781230,1749,966,842,16608,168,-3344,-1440,277,440
781240,1749,956,845,16368,132,-3352,-1424,-111,295
781250,1747,953,840,16448,36,-3436,-1408,-370,64
781260,1749,965,839,16452,-172,-3392,-1424,-428,-19
781270,1751,965,842,16548,-216,-3292,-1392,-333,63
781280,1749,968,840,16504,-256,-3264,-1408,-107,166
781290,1749,965,840,16564,-80,-3408,-1456,162,225
781300,1749,968,841,16464,-96,-3208,-1424,306,268
781310,1748,967,839,16524,-92,-3268,-1408,84,211
781320,1758,958,831,16404,-56,-3508,-1440,-224,125
781330,1749,967,828,16616,124,-3440,-1424,-166,4
781340,1747,967,841,16616,-128,-3536,-1424,-89,17
781350,1750,957,840,16544,-100,-3420,-1392,-227,227
781360,1749,967,840,16540,-128,-3588,-1408,-287,314
781370,1750,969,841,16444,-208,-3500,-1392,-277,231
781380,1784,969,839,16624,-136,-3028,-1376,-139,-43
781390,1749,955,842,16504,-152,-3400,-1392,-28,105
781400,1749,953,840,16616,-188,-3328,-1392,-29,82
781410,1750,953,841,16624,-84,-3188,-1408,72,208
781420,1749,966,840,16500,-72,-3352,-1424,104,312
781430,1749,951,839,16536,-84,-3440,-1424,-52,291
781440,1743,967,842,16564,-64,-3596,-1408,-227,203
781450,1747,968,839,16428,176,-3308,-1424,-207,177
781460,1748,982,840,16548,32,-3240,-1408,-52,207
781470,1747,971,841,16572,56,-3280,-1392,-130,173
781480,1749,983,840,16572,-192,-3376,-1360,-236,219
781490,1740,958,830,16504,-268,-3308,-1408,-199,210
781500,1750,959,839,16508,-176,-3452,-1424,0,110
781510,1749,967,839,16572,-140,-3464,-1408,121,97
781520,1749,974,839,16644,28,-3448,-1392,92,267
781530,1753,955,840,16500,204,-3520,-1456,-51,406
781540,1749,1078,840,16532,192,-3572,-1408,-284,363
781550,1749,971,837,16400,-76,-3376,-1392,-432,228
781560,1748,958,839,16452,-176,-3204,-1424,-311,123
781570,1749,969,838,16604,-292,-3484,-1408,-155,57
781580,1748,973,839,16788,-148,-3312,-1392,-109,174
781590,1748,957,840,16628,-244,-3208,-1408,75,386
781600,1750,975,839,16456,-116,-3460,-1424,229,405
781610,1748,953,839,16424,-140,-3520,-1424,146,320
781620,1747,971,841,16400,-96,-3472,-1408,-92,181
781630,1735,970,841,16460,-76,-3484,-1408,-252,148
781640,1749,977,838,16580,-104,-3380,-1408,-276,154
781650,1749,973,840,16632,-208,-3176,-1392,-162,222
781660,1748,967,838,16552,-148,-3380,-1392,-5,359
781670,1749,931,839,16520,-84,-3468,-1376,36,382
781680,1747,967,837,16488,-52,-3352,-1408,-75,348
781690,1750,955,841,16528,8,-3316,-1376,-152,232
781700,1749,928,837,16532,-56,-3332,-1408,-98,181
781710,1751,965,837,16628,-104,-3324,-1424,-97,292
781720,1745,959,839,16664,-92,-3260,-1408,-15,342
781730,1740,969,841,16588,32,-3304,-1408,53,337
781740,1749,965,838,16540,-88,-3396,-1360,-120,319
781750,1748,957,839,16420,-88,-3428,-1376,-262,230
781760,1747,953,839,16548,-116,-3356,-1408,-166,136
781770,1747,959,839,16528,-172,-3304,-1376,-75,178
781780,1747,950,839,16604,-232,-3292,-1408,14,186
781790,1748,967,830,16656,-120,-3236,-1424,95,304
781800,1765,965,837,16524,-72,-3476,-1408,107,394
781810,1749,965,838,16416,-8,-3440,-1408,-111,309
781820,1751,955,830,16492,-96,-3204,-1392,-244,225
781830,1747,959,839,16552,-96,-3436,-1376,-234,149
781840,1748,953,838,16580,-252,-3136,-1392,-185,155
781850,1749,975,841,16592,-92,-3276,-1408,-2,265
781860,1749,965,837,16528,16,-3256,-1408,202,372
781870,1747,969,839,16532,-52,-3308,-1424,131,386
781880,1749,969,839,16556,100,-3520,-1440,-78,345
781890,1749,968,838,16488,4,-3276,-1392,-270,230
781900,1749,971,839,16384,12,-3188,-1408,-181,170
781910,1751,959,839,16576,24,-3312,-1408,-100,195
781920,1745,965,838,16592,24,-3076,-1392,-166,287
781930,1748,968,838,16608,-88,-3280,-1408,-179,397
781940,1747,967,839,16496,-44,-3312,-1408,-156,330
781950,1748,879,831,16440,-88,-3392,-1424,-101,147
781960,1749,967,811,16456,-120,-3180,-1408,-19,77
781970,1748,957,837,16688,4,-3280,-1424,24,172
781980,1749,951,839,16668,216,-3336,-1408,111,331
781990,1749,967,839,16572,84,-3568,-1376,28,399
782000,1749,978,839,16556,160,-3264,-1392,-193,425
782010,1749,969,837,16492,116,-3204,-1424,-243,282
782020,1741,970,837,16348,-4,-3280,-1424,-70,94
782030,1748,973,852,16568,12,-3324,-1408,-26,110
782040,1749,967,838,16572,-68,-3008,-1408,-12,257
782050,1747,955,836,16512,36,-3396,-1392,46,314
782060,1748,967,831,16528,104,-3288,-1392,29,279
782070,1748,959,836,16500,172,-3332,-1424,38,250
782080,1747,965,831,16624,180,-3408,-1360,-40,209
782090,1747,965,838,16540,240,-3580,-1408,-247,212
782100,1749,967,825,16600,28,-3292,-1392,-394,222
782110,1749,965,847,16516,-104,-3008,-1408,-273,221
782120,1747,959,843,16568,-76,-3212,-1408,-54,177
782130,1749,965,837,16584,-108,-3272,-1424,55,144
782140,1748,965,837,16652,32,-3336,-1392,115,231
782150,1748,969,838,16604,128,-3272,-1424,93,290
782160,1749,956,837,16564,228,-3448,-1376,37,303
