timestamp_ms,mmg1,mmg2,mmg3,accelX,accelY,accelZ,gyroX,gyroY,gyroZ
868176,1709,974,589,16808,-3112,-1944,-1280,235,-231
868186,1677,964,621,16852,-2956,-1748,-1248,-426,92
868196,1709,957,621,16732,-3000,-1596,-1280,-861,237
868206,1708,943,619,16420,-3084,-1628,-1296,-1141,136
868216,1708,947,621,16468,-3196,-1764,-1312,-1507,-141
868226,1707,951,619,16684,-3072,-1904,-1264,-2351,-20
868236,1677,951,619,16784,-2464,-2312,-1264,-3138,336
868246,1710,966,623,16700,-2588,-1452,-1280,-3816,531
868256,1707,953,619,16180,-2300,-1284,-1264,-1570,752
868266,1707,933,623,16368,-3792,-2268,-1296,-1216,129
868276,1707,935,619,16868,-3948,-2048,-1296,-591,1037
868286,1709,934,617,15816,-4108,-2780,-1296,-2591,1954
868296,1711,1032,617,16032,-2776,-1416,-1248,-2643,2002
868306,1708,999,621,15432,-3192,-1396,-1280,-2600,-220
868316,1704,967,597,15780,-3640,-1088,-1280,-943,-1577
868326,1708,903,615,16188,-3872,-1468,-1296,313,-2041
868336,1709,932,581,16468,-3540,-1836,-1296,616,-2028
868346,1707,953,619,16300,-3372,-2176,-1280,751,-1938
868356,1709,955,618,16416,-3440,-2072,-1248,946,-1792
868366,1709,981,667,16488,-3332,-2096,-1280,1276,-1722
868376,1708,983,619,16432,-3596,-2008,-1280,1489,-1802
868386,1709,983,618,16412,-3304,-2440,-1312,1441,-1592
868396,1707,957,617,16684,-3440,-2900,-1280,1273,-1138
868406,1709,971,619,16564,-3512,-1876,-1280,1384,-1242
868416,1708,953,619,16732,-3668,-1704,-1312,1330,-862
868426,1707,947,619,16524,-3596,-1964,-1280,1267,-866
868436,1708,949,619,16372,-3636,-1788,-1264,1377,-621
868446,1708,953,616,15788,-3132,-1748,-1280,1914,-528
868456,1710,927,615,16652,-3304,-2120,-1312,1248,-306
868466,1708,956,617,16420,-3168,-2248,-1296,791,299
868476,1707,982,618,15672,-3184,-1704,-1280,545,153
868486,1707,987,618,15448,-2904,-4716,-1264,-1052,-953
868496,1708,1000,620,16008,-3256,-3168,-1264,-1811,-2596
868506,1709,983,619,17956,-2564,-1556,-1280,-584,-2215
868516,1709,967,619,16800,-4552,-2008,-1296,-1115,-1148
868526,1716,1007,619,16572,-3652,-2088,-1264,666,-523
868536,1708,965,615,16692,-4320,-1728,-1248,1744,112
868546,1709,937,616,16216,-3880,-2540,-1296,1189,480
868556,1707,957,619,15928,-3952,-3156,-1280,-19,25
868566,1707,985,619,16204,-4104,-2972,-1280,-850,-832
868576,1710,933,605,16068,-4344,-2592,-1264,-598,-1019
868586,1709,949,617,16572,-4272,-2416,-1312,-124,-917
868596,1708,969,573,16572,-4220,-2572,-1280,130,-366
868606,1709,979,617,16512,-4280,-2764,-1280,158,134
868616,1709,1007,669,16424,-3988,-2492,-1280,206,291
868626,1704,987,617,16124,-3868,-2488,-1264,349,65
868636,1707,989,617,16164,-3668,-2676,-1280,397,-164
868646,1708,973,617,16364,-3488,-2660,-1280,212,-230
868656,1709,980,619,16436,-3444,-2544,-1296,89,-203
868666,1707,981,617,16356,-3256,-2592,-1280,20,22
868676,1709,987,617,16428,-3340,-2676,-1264,-243,118
868686,1709,975,616,16308,-3308,-2416,-1280,-401,161
868696,1707,979,617,16364,-3504,-2284,-1280,-422,76
868706,1708,950,619,16284,-3356,-2260,-1296,-366,-78
868716,1708,957,618,16420,-3592,-2292,-1232,-351,-114
868726,1709,969,617,16488,-3812,-2500,-1296,-482,-46
868736,1709,979,621,16320,-3808,-2260,-1328,-408,-38
868746,1707,985,617,16244,-3512,-2368,-1248,-155,30
868756,1703,991,617,16348,-3424,-2412,-1296,-79,-15
868766,1709,989,617,16332,-3272,-2332,-1296,-276,-9
868776,1707,991,617,16412,-3220,-2708,-1296,-585,-164
868786,1707,1011,617,16360,-3044,-2676,-1296,-747,-264
868796,1709,1017,617,16408,-3180,-2420,-1312,-850,-7
868806,1709,989,617,16500,-3500,-2452,-1296,-1124,160
868816,1709,1067,620,16296,-3624,-2300,-1264,-1256,5
868826,1709,1003,613,16332,-3920,-2380,-1280,-1115,-40
868836,1710,1003,617,16332,-4020,-2348,-1264,-814,-102
868846,1709,996,617,16344,-3956,-2184,-1280,-412,-247
868856,1709,969,613,16336,-3700,-2456,-1280,-61,-297
868866,1709,965,618,16436,-3476,-2624,-1280,142,-62
868876,1709,955,621,16428,-3336,-2600,-1248,99,147
868886,1709,955,618,16268,-3132,-2664,-1280,132,111
868896,1707,968,619,16152,-2928,-2736,-1280,57,-90
868906,1708,971,617,16340,-2776,-2624,-1280,-48,-81
868916,1710,965,619,16420,-2880,-2656,-1264,-189,-153
868926,1708,965,619,16408,-2856,-2820,-1280,-321,-257
868936,1709,959,583,16416,-2752,-2476,-1248,-213,-190
868946,1707,947,617,16316,-2868,-2540,-1296,-111,-58
868956,1707,933,620,16280,-2784,-2672,-1280,-12,-51
868966,1707,909,616,16372,-2652,-2824,-1296,283,-281
868976,1711,937,617,16552,-2416,-2704,-1248,491,-390
868986,1707,955,616,16556,-2184,-2672,-1280,399,-241
868996,1708,891,617,16508,-2100,-2868,-1280,-51,-112
869006,1708,955,617,16468,-2224,-2748,-1312,-587,-59
869016,1705,958,617,16208,-2504,-2912,-1264,-1093,-149
869026,1708,954,617,16300,-2636,-2672,-1296,-1086,-362
869036,1708,972,617,16296,-2624,-2476,-1248,-675,-529
869046,1709,970,616,16584,-2384,-2508,-1264,-278,-435
869056,1708,964,617,16412,-2188,-2572,-1312,-54,-203
869066,1708,959,619,16472,-1772,-2800,-1264,5,-161
869076,1708,953,616,16304,-1724,-2972,-1296,-256,-241
869086,1709,965,617,16404,-1820,-2840,-1280,-635,-272
869096,1707,925,616,16688,-1864,-3092,-1280,-947,-687
869106,1708,941,619,16728,-1976,-2972,-1264,-1098,-972
869116,1705,889,616,16700,-2016,-2712,-1248,-1199,-482
869126,1707,895,618,16896,-2452,-2852,-1280,-1575,-188
869136,1707,943,618,16672,-2508,-3016,-1248,-1833,-260
869146,1709,971,620,16444,-2596,-2816,-1248,-1677,-195
869156,1708,980,617,16220,-2496,-2736,-1296,-1260,-192
869166,1710,960,616,16264,-2204,-2716,-1312,-858,-279
869176,1708,965,615,16292,-1952,-2756,-1296,-505,-436
869186,1706,959,619,16504,-1580,-2936,-1280,-270,-461
869196,1709,954,621,16540,-1280,-3116,-1248,-161,-665
869206,1709,955,619,16604,-1280,-3548,-1296,-417,-523
869216,1707,973,618,16636,-1244,-3796,-1296,-744,-528
869226,1707,975,617,16484,-1272,-3656,-1280,-652,-356
869236,1707,973,617,16504,-1328,-4072,-1264,-517,-104
869246,1707,980,615,16412,-1412,-4020,-1248,-598,87
869256,1709,981,617,16424,-1308,-3968,-1264,-638,332
869266,1705,971,617,16468,-1248,-3832,-1264,-574,379
869276,1717,965,617,16448,-1284,-3820,-1312,-641,427
869286,1709,967,616,16468,-1180,-3256,-1280,-665,572
869296,1707,1032,615,16536,-1144,-3168,-1312,-614,619
869306,1709,987,620,16648,-1364,-3052,-1296,-622,520
869316,1708,987,615,16720,-1088,-2676,-1296,-302,563
869326,1709,967,615,16648,-968,-2516,-1280,211,555
869336,1709,955,617,16660,-660,-3012,-1280,472,504
869346,1726,947,617,16548,-484,-3236,-1248,339,508
869356,1709,951,619,16500,-344,-3284,-1280,179,618
869366,1709,955,635,16492,-72,-3048,-1280,192,660
869376,1709,972,615,16524,-32,-3276,-1280,116,640
869386,1707,970,619,16424,228,-3316,-1280,-166,724
869396,1709,965,617,16476,56,-3304,-1296,-554,872
869406,1709,954,619,16488,-228,-3244,-1280,-922,799
869416,1725,974,615,16564,-512,-2760,-1280,-893,656
869426,1709,981,615,16676,-384,-2560,-1280,-497,646
869436,1709,965,615,16780,-240,-2504,-1312,9,779
869446,1707,953,614,16784,-136,-2692,-1280,147,908
869456,1707,933,613,16592,20,-2712,-1280,-49,1009
869466,1707,957,616,16504,-12,-2928,-1248,-352,914
869476,1709,957,619,16460,-4,-3120,-1264,-669,695
869486,1709,970,617,16492,-276,-3068,-1312,-872,572
869496,1711,953,616,16628,-456,-2684,-1296,-891,685
869506,1708,952,615,16696,-384,-2740,-1280,-783,821
869516,1709,938,616,16664,-500,-2760,-1280,-737,858
869526,1715,975,607,16472,-576,-2424,-1296,-701,957
869536,1709,978,613,16472,-460,-2412,-1296,-558,980
869546,1708,957,615,16484,-524,-2468,-1296,-330,821
869556,1709,970,615,16588,-228,-2564,-1280,-127,609
869566,1695,964,613,16788,-40,-2728,-1280,133,501
869576,1707,967,615,16852,212,-2584,-1296,55,610
869586,1708,955,615,16820,520,-2628,-1328,-242,864
869596,1711,948,615,16736,684,-2688,-1296,-479,1130
869606,1709,943,616,16516,644,-2896,-1296,-754,1031
869616,1707,920,611,16532,460,-2824,-1280,-966,752
869626,1707,955,613,16552,304,-2908,-1296,-1082,448
869636,1708,983,614,16780,28,-2556,-1296,-900,315
869646,1708,999,615,16732,52,-2508,-1280,-471,461
869656,1709,997,617,16840,240,-2584,-1296,16,623
869666,1709,988,616,16796,212,-2556,-1264,129,760
869676,1707,983,613,16632,468,-2632,-1296,-120,769
869686,1708,982,614,16444,192,-2568,-1296,-304,599
869696,1707,973,613,16572,308,-2320,-1280,-180,417
869706,1707,973,614,16644,416,-2452,-1328,193,323
869716,1707,972,614,16536,568,-2444,-1296,362,489
869726,1708,972,615,16568,788,-2472,-1296,253,658
869736,1707,965,615,16428,836,-2552,-1296,159,665
869746,1709,969,615,16392,752,-2384,-1296,141,466
869756,1707,978,615,16588,956,-2280,-1328,264,230
869766,1708,871,613,16728,1060,-2244,-1296,374,97
869776,1707,989,614,16840,1128,-2680,-1248,230,208
869786,1709,983,612,16808,1128,-2360,-1296,77,449
869796,1707,979,615,16744,1040,-2540,-1296,-106,535
869806,1708,989,613,16596,964,-2472,-1296,-264,433
869816,1708,975,613,16632,912,-2476,-1296,-225,294
869826,1709,983,616,16548,684,-2692,-1312,-394,62
869836,1707,987,663,16696,404,-2520,-1264,-693,43
869846,1707,991,615,16644,160,-2316,-1296,-647,212
869856,1707,981,616,16664,204,-2284,-1296,-241,370
869866,1708,973,615,16432,192,-2532,-1264,83,321
869876,1707,969,614,16488,-80,-2852,-1312,-90,146
869886,1708,968,615,16532,-116,-2672,-1296,-395,-55
869896,1709,993,613,16800,-420,-2688,-1312,-560,-80
869906,1708,971,611,16768,-440,-2580,-1312,-480,126
869916,1709,952,615,16820,-572,-2676,-1328,-329,244
869926,1711,955,613,16848,-640,-2612,-1280,-320,259
869936,1710,970,616,16732,-728,-2688,-1296,-422,215
869946,1707,974,615,16840,-624,-2392,-1296,-429,187
869956,1707,967,621,16824,-616,-2712,-1312,-340,172
869966,1709,972,616,16924,-736,-2476,-1296,-222,132
869976,1708,968,613,16952,-680,-2416,-1280,-150,166
869986,1708,957,612,16768,-500,-2328,-1296,-48,335
869996,1707,947,613,16748,-452,-2364,-1296,128,351
870006,1707,936,611,16576,-488,-2512,-1280,146,432
870016,1707,951,635,16584,-472,-2592,-1280,-34,-46
870026,1709,957,615,16584,-432,-2764,-1312,-105,-29
870036,1709,980,611,16692,-524,-2560,-1296,-14,13
870046,1700,966,613,16704,-564,-2648,-1296,120,185
870056,1707,1046,616,16736,-424,-2760,-1280,200,218
870066,1707,974,617,16760,-316,-2504,-1312,300,231
870076,1708,969,616,16756,-364,-2308,-1280,327,148
870086,1711,954,615,16768,-276,-2300,-1280,284,74
870096,1707,952,613,16616,-252,-2496,-1296,432,69
870106,1707,952,611,16672,-116,-2500,-1280,667,44
870116,1707,949,612,16676,-12,-2584,-1312,725,-6
870126,1708,959,611,16656,-44,-2916,-1312,652,-69
870136,1707,972,617,16712,92,-3008,-1280,295,-5
870146,1709,971,615,16636,88,-2816,-1312,98,159
870156,1708,977,614,16552,-32,-2784,-1280,96,244
870166,1708,967,615,16480,-168,-2704,-1280,-98,335
870176,1707,949,611,16636,-348,-2468,-1264,-286,282
870186,1705,972,614,16596,-436,-2272,-1280,-133,219
870196,1706,953,612,16624,-484,-2116,-1280,272,153
870206,1709,930,613,16520,-312,-2036,-1312,778,135
870216,1709,941,612,16616,-124,-2392,-1280,1144,83
870226,1707,941,597,16552,220,-2560,-1280,1325,99
870236,1710,950,615,16716,432,-2688,-1280,1408,70
870246,1708,955,613,16704,684,-2920,-1312,1279,8
870256,1707,955,612,16712,792,-2892,-1312,1029,83
870266,1709,965,613,16668,832,-2864,-1280,707,226
870276,1707,973,613,16736,696,-2756,-1296,498,291
870286,1708,970,613,16616,388,-2464,-1280,447,283
870296,1707,973,616,16580,312,-2468,-1280,468,189
870306,1707,980,615,16688,308,-2560,-1296,604,-10
870316,1709,995,626,16808,268,-2672,-1248,780,28
870326,1708,1004,615,16952,588,-3096,-1280,829,224
870336,1668,1001,613,16808,528,-2844,-1312,659,525
870346,1707,995,615,16720,404,-3060,-1312,185,666
870356,1704,981,617,16536,136,-2880,-1312,-164,460
870366,1708,995,648,16604,24,-2780,-1280,-141,209
870376,1707,989,613,16792,-60,-2560,-1280,-109,141
870386,1707,959,611,16864,-120,-2612,-1312,-89,326
870396,1708,951,603,16612,-256,-2584,-1312,-48,581
870406,1709,951,619,16612,-208,-2332,-1296,80,687
870416,1708,947,605,16604,-208,-2452,-1248,163,594
870426,1709,964,606,16600,-60,-2640,-1312,33,213
870436,1724,965,602,16796,-8,-2592,-1280,-105,96
870446,1741,958,614,16872,-44,-2380,-1280,-70,238
870456,1707,966,615,16672,92,-2212,-1264,144,489
870466,1707,953,615,16672,112,-2468,-1248,193,653
870476,1708,950,617,16488,216,-2572,-1248,-63,611
870486,1707,953,615,16512,-136,-2376,-1280,-387,382
870496,1708,940,614,16576,-300,-2304,-1312,-441,151
870506,1707,913,598,16720,-304,-2280,-1264,-225,-120
870516,1709,937,617,16888,-260,-2008,-1280,158,-171
870526,1708,971,597,16724,-120,-2204,-1280,609,109
870536,1710,989,606,16708,224,-2628,-1296,789,379
870546,1708,975,611,16596,308,-2548,-1280,610,409
870556,1708,967,611,16472,80,-2432,-1296,280,262
870566,1709,958,607,16584,232,-2604,-1280,-67,92
870576,1707,951,611,16640,268,-2412,-1312,-90,-56
870586,1707,947,613,16652,208,-2488,-1296,-2,-90
870596,1707,982,612,16772,192,-2424,-1280,-4,25
870606,1707,985,615,16644,208,-2292,-1312,143,124
870616,1701,975,616,16416,248,-2360,-1312,224,96
870626,1708,965,615,16364,364,-2460,-1280,51,-17
870636,1709,967,613,16588,456,-2532,-1264,-126,-251
870646,1707,958,613,16752,608,-2532,-1312,-226,-448
870656,1693,981,613,16820,1016,-2420,-1280,-8,-358
870666,1707,986,601,16900,1272,-2800,-1264,-134,-76
870676,1707,1017,612,16660,1204,-2932,-1280,-594,116
870686,1709,984,613,16628,780,-2628,-1264,-1236,219
870696,1708,959,613,16380,456,-2636,-1280,-1704,-23
870706,1708,947,613,16484,60,-2604,-1248,-1718,-473
870716,1707,928,607,16712,-96,-2288,-1296,-1123,-555
870726,1707,948,609,17020,-132,-2380,-1296,-469,-337
870736,1739,964,607,16940,4,-2272,-1264,56,108
870746,1708,947,611,16680,424,-2448,-1312,242,412
870756,1708,949,613,16448,644,-2680,-1280,-9,262
870766,1708,951,613,16528,456,-2728,-1264,-711,-107
870776,1707,957,612,16456,248,-2624,-1296,-1444,-396
870786,1708,941,615,16528,-48,-2432,-1264,-1311,-553
870796,1707,950,615,16752,-272,-2460,-1264,-531,-471
870806,1709,952,613,16856,4,-2612,-1280,-16,230
870816,1708,966,615,16836,76,-2864,-1232,-117,267
870826,1708,972,622,16732,-172,-2868,-1296,-647,285
870836,1707,967,611,16372,-300,-2696,-1280,-852,-24
870846,1708,952,611,16548,-412,-2700,-1296,-682,-435
870856,1707,967,611,16712,-640,-2600,-1264,-374,-537
870866,1707,949,605,16948,-384,-2540,-1296,95,-279
870876,1707,967,612,16772,-40,-2952,-1296,487,136
870886,1707,951,613,16824,-60,-2872,-1280,350,242
870896,1707,949,613,16468,64,-3024,-1296,-39,99
870906,1709,953,614,16384,52,-3160,-1296,-278,-132
870916,1707,967,613,16500,-76,-3004,-1296,-369,-329
870926,1707,973,611,16732,-40,-2680,-1296,-259,-226
870936,1707,967,612,16788,-24,-2896,-1280,-145,-9
870946,1709,968,611,16780,52,-2560,-1296,-52,183
870956,1707,968,612,16720,220,-2504,-1264,135,193
870966,1708,951,613,16656,412,-2568,-1280,229,129
870976,1709,956,613,16564,260,-2768,-1264,98,-45
870986,1707,973,612,16772,324,-2688,-1280,-45,-55
870996,1707,985,610,16524,348,-2852,-1296,19,-37
871006,1709,973,611,16516,352,-2932,-1296,53,-44
871016,1708,971,610,16660,224,-2940,-1312,-128,10
871026,1706,950,607,16576,140,-2936,-1312,-228,-16
871036,1709,951,648,16572,100,-3044,-1280,-139,-51
871046,1709,979,595,16560,112,-3000,-1280,-98,-72
871056,1707,973,611,16688,140,-2788,-1296,-62,73
871066,1707,960,613,16564,92,-3000,-1280,15,100
871076,1709,979,613,16700,-20,-2624,-1296,-80,54
871086,1699,957,611,16644,60,-2792,-1296,-108,84
871096,1707,948,611,16564,28,-2792,-1312,82,-15
871106,1707,969,611,16572,16,-2688,-1264,199,1
871116,1707,968,607,16752,100,-2776,-1312,253,12
871126,1707,971,612,16664,232,-2792,-1296,361,-13
871136,1707,970,607,16736,248,-3084,-1296,310,-13
871146,1708,959,612,16664,272,-3136,-1280,232,137
871156,1707,955,611,16608,412,-3156,-1312,200,167
871166,1708,969,615,16668,144,-3036,-1312,7,202
871176,1719,971,614,16488,196,-2984,-1312,-317,201
871186,1715,925,613,16500,104,-2928,-1296,-360,64
871196,1708,966,612,16584,-56,-2812,-1280,2,-154
871206,1707,959,604,16752,156,-2640,-1296,320,-82
871216,1709,959,606,16652,372,-2704,-1296,501,190
871226,1709,959,611,16592,392,-2980,-1344,519,277
871236,1708,958,611,16488,404,-3012,-1280,41,213
871246,1708,952,612,16516,392,-2824,-1280,-346,-18
871256,1707,940,613,16528,164,-2896,-1280,-271,-260
871266,1708,943,611,16556,132,-3076,-1296,52,-254
871276,1709,948,609,16656,280,-2820,-1280,261,149
871286,1711,924,610,16624,392,-2852,-1280,390,439
871296,1709,950,607,16512,644,-2820,-1296,227,470
871306,1703,949,610,16488,488,-3032,-1280,-229,222
871316,1705,958,605,16436,328,-2776,-1312,-662,-9
871326,1708,958,615,16520,152,-2920,-1280,-571,-136
871336,1707,973,611,16668,44,-2816,-1280,-89,-95
871346,1708,989,609,16928,324,-3024,-1296,522,38
871356,1709,1033,611,16868,624,-2936,-1312,717,299
871366,1709,987,613,16720,760,-3296,-1280,411,584
871376,1705,991,613,16448,776,-3256,-1280,-265,567
871386,1704,986,610,16384,440,-3120,-1280,-746,228
871396,1689,983,611,16444,76,-3044,-1328,-871,-119
871406,1709,970,612,16632,-204,-2688,-1280,-695,-163
871416,1708,969,613,16768,-260,-2500,-1344,-221,3
871426,1709,969,611,16944,-216,-2652,-1296,109,198
871436,1717,978,611,16888,132,-2872,-1280,230,364
871446,1708,963,589,16592,232,-3004,-1328,259,305
871456,1709,973,611,16616,300,-3148,-1280,-78,160
871466,1707,967,610,16520,112,-3152,-1312,-499,79
871476,1707,964,611,16500,-160,-3072,-1296,-565,49
871486,1707,981,610,16476,-264,-3104,-1312,-426,110
871496,1707,985,611,16624,-252,-3044,-1248,-241,189
871506,1707,972,609,16684,-248,-2856,-1280,-136,275
871516,1705,967,603,16712,-208,-2812,-1312,12,269
871526,1707,955,604,16580,8,-2840,-1328,263,128
871536,1709,973,600,16768,44,-2836,-1312,489,51
871546,1708,968,607,16688,272,-2752,-1312,558,184
871556,1710,957,611,16596,456,-3136,-1328,503,359
871566,1709,951,611,16568,520,-3188,-1264,158,378
871576,1707,955,613,16448,352,-3092,-1296,-238,309
871586,1707,957,619,16504,32,-2992,-1280,-432,72
871596,1707,991,612,16564,32,-3368,-1312,-453,-69
871606,1708,973,613,16816,-12,-2832,-1296,-308,106
871616,1705,973,611,16712,4,-2748,-1296,-73,341
871626,1706,973,613,16724,-12,-2824,-1264,-78,536
871636,1704,975,609,16500,-84,-2920,-1296,-166,349
871646,1707,979,607,16452,-44,-2908,-1312,-92,42
871656,1709,982,607,16532,32,-2888,-1296,121,-198
871666,1707,969,605,16852,-92,-3028,-1296,172,-13
871676,1708,957,605,16772,132,-2964,-1312,164,338
871686,1707,967,605,16652,116,-3060,-1264,261,533
871696,1708,947,611,16600,328,-3108,-1328,86,490
871706,1708,949,611,16396,160,-3112,-1328,-329,242
871716,1709,947,612,16528,12,-2944,-1312,-467,-3
871726,1727,969,596,16808,12,-2904,-1312,-260,-79
871736,1709,979,611,16848,-124,-2656,-1296,93,160
871746,1707,973,607,16780,100,-2828,-1296,259,521
871756,1708,971,611,16516,120,-3144,-1296,255,624
871766,1709,968,611,16256,208,-3120,-1296,0,488
871776,1707,969,605,16496,48,-2888,-1312,-383,129
871786,1707,969,599,16452,-20,-2928,-1328,-435,-223
871796,1706,967,613,16752,-116,-2648,-1264,-243,-81
871806,1707,983,605,16820,-188,-2808,-1312,-83,275
871816,1707,983,607,16632,-176,-2908,-1296,56,448
871826,1687,971,611,16588,-16,-2824,-1296,318,380
871836,1714,955,610,16512,168,-2936,-1296,539,199
871846,1707,951,611,16464,172,-3004,-1264,293,149
871856,1708,971,607,16644,144,-3084,-1312,-116,175
871866,1708,959,607,16744,120,-2904,-1296,-240,199
871876,1707,967,610,16640,16,-3132,-1296,-142,181
871886,1708,970,607,16708,-60,-2808,-1312,7,268
871896,1707,970,607,16644,-48,-2964,-1312,141,332
871906,1708,970,607,16632,-84,-2768,-1280,83,385
871916,1707,968,610,16576,0,-3036,-1296,-33,329
871926,1708,959,607,16572,-24,-2932,-1264,38,199
871936,1707,948,605,16660,-32,-2864,-1312,94,169
871946,1708,940,607,16660,164,-3032,-1296,49,144
871956,1709,943,606,16852,180,-2680,-1328,20,231
871966,1707,937,607,16664,164,-2856,-1280,51,331
871976,1708,951,607,16548,128,-3000,-1312,158,271
871986,1673,955,611,16680,332,-3080,-1280,183,159
871996,1707,969,607,16580,252,-3180,-1296,-6,214
872006,1707,1085,607,16712,132,-3024,-1296,-223,285
872016,1707,987,606,16688,-56,-2936,-1280,-256,152
872026,1709,969,607,16592,44,-2776,-1280,-27,352
872036,1709,957,605,16568,-156,-2656,-1312,196,245
872046,1693,950,611,16632,32,-2948,-1312,188,205
872056,1707,955,611,16620,128,-2880,-1328,97,202
872066,1707,968,604,16580,224,-2748,-1312,163,204
872076,1707,972,606,16604,284,-2940,-1280,149,208
872086,1707,970,612,16744,412,-3008,-1296,121,178
872096,1707,967,611,16632,284,-3152,-1312,-101,231
872106,1709,967,613,16628,124,-2832,-1280,-166,283
872116,1708,969,609,16584,232,-2704,-1312,2,200
872126,1705,965,611,16552,268,-2852,-1312,41,203
872136,1707,965,609,16596,172,-3012,-1296,-55,161
872146,1705,965,606,16528,20,-2872,-1280,-233,148
872156,1708,959,605,16504,-28,-2872,-1312,-287,155
872166,1707,953,606,16564,-8,-2896,-1312,-203,176
872176,1708,972,607,16632,16,-2840,-1312,-1,205
872186,1707,973,605,16672,80,-2980,-1312,75,249
872196,1708,973,609,16700,28,-2928,-1312,60,294
872206,1683,949,607,16640,32,-2724,-1344,1,272
872216,1707,951,610,16584,140,-2748,-1296,60,218
872226,1711,956,607,16660,104,-2936,-1280,108,219
872236,1707,965,606,16432,148,-2920,-1280,-71,196
872246,1707,975,607,16696,120,-2736,-1312,-113,171
872256,1707,968,605,16636,32,-2960,-1296,-48,145
872266,1707,967,603,16572,-44,-3128,-1296,-180,262
872276,1708,969,605,16512,28,-2968,-1280,-214,275
872286,1693,967,606,16672,20,-2884,-1312,-105,224
872296,1709,967,606,16656,132,-2948,-1280,11,213
872306,1707,952,605,16656,148,-2896,-1312,42,249
872316,1709,965,606,16732,136,-2960,-1296,-79,318
872326,1707,969,605,16588,0,-2812,-1312,-113,258
872336,1716,969,607,16596,80,-2640,-1280,125,272
872346,1707,959,606,16552,220,-3020,-1296,93,281
872356,1706,966,607,16616,148,-2936,-1280,-125,209
872366,1708,972,605,16664,184,-2780,-1312,-128,203
872376,1707,975,610,16740,176,-3056,-1312,-144,165
872386,1716,969,604,16716,164,-2972,-1312,-214,158
872396,1707,969,607,16748,120,-2732,-1296,-237,306
872406,1707,947,605,16580,132,-2980,-1312,-276,328
872416,1705,955,604,16524,-8,-2808,-1312,-384,336
872426,1707,965,605,16596,-48,-2728,-1280,-274,162
872436,1709,958,596,16664,-40,-2860,-1280,-20,133
872446,1707,934,606,16700,108,-2816,-1296,46,172
872456,1708,968,610,16692,96,-2912,-1312,73,243
872466,1707,985,596,16732,268,-2912,-1280,28,357
872476,1707,966,605,16596,292,-2900,-1328,-11,422
872486,1707,969,611,16604,184,-2928,-1312,-16,285
872496,1704,971,573,16600,156,-2708,-1312,-141,205
872506,1707,952,599,16616,164,-2840,-1312,-182,280
872516,1707,956,605,16556,8,-2884,-1312,-57,215
872526,1707,959,605,16628,-20,-2988,-1328,-136,167
872536,1707,959,605,16672,-40,-2652,-1280,-156,175
872546,1707,952,606,16672,-88,-2904,-1280,42,226
872556,1706,967,603,16748,96,-3084,-1312,56,269
872566,1707,977,611,16740,64,-2804,-1312,-60,284
872576,1703,916,605,16632,72,-2980,-1328,-204,297
872586,1693,973,607,16608,-8,-2716,-1280,-239,215
872596,1707,960,611,16564,-124,-2744,-1280,-275,179
872606,1720,957,606,16572,-40,-2600,-1328,-185,211
872616,1707,949,621,16660,-8,-2800,-1312,63,244
872626,1706,953,607,16712,56,-2912,-1328,144,304
872636,1707,966,605,16632,188,-2844,-1312,31,333
872646,1704,971,603,16620,184,-3072,-1312,-118,201
872656,1703,967,599,16556,148,-2724,-1296,-246,167
872666,1707,953,607,16632,16,-2900,-1344,-120,136
872676,1707,969,611,16752,28,-2832,-1312,-25,123
872686,1709,979,605,16604,28,-2716,-1344,79,261
872696,1707,957,605,16568,56,-2828,-1312,168,335
872706,1708,952,606,16536,192,-3032,-1296,230,195
872716,1706,960,607,16648,288,-2908,-1312,118,108
872726,1705,959,606,16616,180,-3080,-1280,-133,165
872736,1707,955,601,16616,232,-2868,-1296,-256,194
872746,1707,969,605,16472,-108,-2780,-1312,-284,197
872756,1709,965,602,16544,-20,-2776,-1328,-233,223
872766,1707,967,605,16524,-136,-2720,-1312,39,167
872776,1707,967,605,16672,-84,-2760,-1312,189,93
872786,1663,965,605,16664,-68,-2904,-1296,114,165
872796,1706,967,607,16672,84,-3124,-1328,31,235
872806,1707,975,607,16652,152,-2864,-1296,155,318
872816,1707,965,603,16664,224,-3056,-1312,167,269
872826,1707,966,607,16476,276,-2936,-1312,-15,396
872836,1709,969,633,16484,244,-3052,-1296,-304,230
872846,1707,966,605,16620,-56,-2828,-1312,-342,230
872856,1705,947,610,16520,-8,-2928,-1312,-231,214
872866,1707,957,606,16656,-136,-2796,-1296,-62,143
872876,1707,949,604,16828,-48,-2836,-1312,-46,257
872886,1703,960,607,16692,36,-2788,-1296,-7,330
872896,1707,955,605,16492,32,-2644,-1312,121,314
872906,1705,950,605,16624,148,-2896,-1312,101,208
872916,1709,957,605,16656,168,-2948,-1296,-107,62
872926,1705,1011,603,16620,176,-2776,-1328,-187,28
872936,1707,970,605,16832,88,-2756,-1296,-87,187
872946,1707,969,604,16636,152,-2748,-1312,49,325
872956,1708,970,606,16556,116,-2976,-1312,53,340
872966,1706,972,603,16492,52,-3000,-1296,-161,253
872976,1707,968,605,16492,-100,-2788,-1296,-416,134
872986,1708,959,604,16552,-44,-2660,-1296,-251,48
872996,1707,969,605,16788,-92,-2716,-1328,101,53
873006,1707,973,605,16788,-52,-2672,-1312,219,246
873016,1708,967,606,16652,136,-2848,-1296,309,405
873026,1709,970,610,16580,84,-2844,-1312,146,341
873036,1707,959,605,16456,188,-2588,-1312,-49,213
873046,1707,948,604,16536,148,-2884,-1296,-128,76
873056,1706,939,605,16700,132,-2800,-1296,-258,-24
873066,1707,959,603,16680,44,-2948,-1328,-224,109
873076,1708,965,603,16740,216,-2808,-1280,-8,375
873086,1707,971,603,16636,184,-2888,-1312,-209,459
873096,1695,965,603,16548,204,-2660,-1296,-670,428
873106,1707,952,603,16500,-124,-2648,-1296,-965,170
873116,1707,943,605,16396,-184,-2500,-1312,-931,-95
873126,1707,920,601,16568,-420,-2212,-1296,-651,-105
873136,1705,911,604,16796,44,-2344,-1344,-348,133
873146,1707,878,615,16716,188,-3016,-1296,-293,-67
873156,1707,943,603,16740,-64,-3628,-1296,-1048,-218
873166,1705,965,604,16576,-56,-3396,-1280,-1421,26
873176,1707,951,604,16600,-128,-3788,-1328,-977,95
873186,1708,966,604,16584,-208,-3484,-1296,-447,242
873196,1705,975,605,16636,-368,-3660,-1296,-518,510
873206,1707,958,605,16508,-56,-3688,-1296,-666,540
873216,1707,941,611,16628,-104,-3300,-1280,-496,428
873226,1706,934,603,16488,-176,-3444,-1328,-539,420
873236,1707,907,605,16576,-220,-3100,-1296,-515,627
873246,1707,1080,605,16612,-496,-3040,-1280,-669,620
873256,1706,1050,606,16688,-592,-3032,-1296,-918,682
873266,1707,1023,607,16616,-772,-2908,-1312,-883,578
873276,1707,1013,607,16608,-996,-2800,-1312,-527,463
873286,1727,981,606,16744,-956,-3028,-1312,-55,424
873296,1707,979,609,16880,-796,-3044,-1312,380,434
873306,1707,972,606,16816,-728,-3148,-1312,445,658
873316,1706,969,605,16744,-644,-3040,-1312,445,938
873326,1707,967,588,16528,-420,-3248,-1344,529,931
873336,1707,967,603,16536,-536,-3212,-1344,510,827
873346,1707,966,603,16740,-500,-3280,-1312,12,825
873356,1707,965,601,16840,-672,-3244,-1312,-358,816
873366,1707,967,599,16716,-708,-3192,-1312,-188,856
873376,1707,964,603,16744,-876,-3000,-1312,118,1001
873386,1705,965,601,16816,-968,-2976,-1328,422,1087
873396,1708,959,603,16788,-592,-2636,-1280,940,1159
873406,1706,965,605,16772,-480,-3220,-1280,1198,1109
873416,1710,965,601,16820,-320,-3184,-1312,855,1109
873426,1707,947,604,16728,-232,-2972,-1312,627,1241
873436,1705,1001,605,16664,-428,-2972,-1328,521,1313
873446,1707,965,606,16716,-776,-3288,-1312,295,1284
873456,1709,967,604,16648,-920,-2752,-1312,315,1448
873466,1705,958,603,16704,-992,-2860,-1280,617,1628
873476,1707,959,597,16700,-1180,-3328,-1312,522,1570
873486,1708,965,607,16476,-1600,-2648,-1296,363,1552
873496,1701,959,601,16644,-1680,-3056,-1312,318,1578
873506,1705,958,599,16748,-2052,-3372,-1344,279,1288
873516,1707,967,600,17032,-2492,-2732,-1296,436,1246
873526,1707,959,601,17168,-2244,-2712,-1344,789,1381
873536,1714,965,601,17380,-1912,-2488,-1328,1025,1538
873546,1707,965,603,17556,-1400,-2700,-1328,1073,1720
873556,1707,965,601,17480,-944,-2440,-1312,854,1804
873566,1707,997,601,17604,-528,-2452,-1328,369,1757
873576,1703,968,601,18028,-156,-2816,-1296,-638,1367
873586,1707,959,599,18492,60,-2340,-1328,-1819,1008
873596,1707,965,605,19404,-100,-2692,-1296,-2799,836
873606,1707,965,601,20528,-788,-2976,-1312,-4041,376
873616,1700,963,599,21028,-1484,-2884,-1296,-5362,580
873626,1707,966,601,21236,-1704,-2492,-1296,-5459,1660
873636,1705,965,606,21440,-2128,-2984,-1312,-4595,2843
873646,1707,971,599,20980,-2204,-3148,-1296,-3939,3820
873656,1705,965,603,20532,-1820,-2232,-1312,-3160,4877
873666,1705,968,603,20156,-1616,-2320,-1312,-2649,5430
873676,1707,969,607,19488,-1104,-2352,-1296,-2308,5323
873686,1711,965,603,19140,-324,-1340,-1280,-1708,4929
873696,1708,957,611,18920,504,-1848,-1280,-1022,4960
873706,1708,952,603,19320,1204,-2796,-1312,-562,4185
873716,1709,966,594,19916,2040,-2904,-1280,-472,2553
873726,1707,958,601,19596,1936,-3888,-1280,-961,1403
873736,1704,959,599,20116,1440,-4252,-1312,-2483,974
873746,1726,959,587,20852,2108,-2652,-1280,-3024,1449
873756,1709,959,566,22540,4304,-940,-1296,-2211,2410
873766,1709,965,589,21968,6596,-1752,-1280,-295,2448
873776,1709,965,611,20160,7332,-3348,-1328,144,2508
873786,1710,950,621,19056,6804,-3528,-1328,-2660,3620
873796,1704,958,605,18984,6096,-2612,-1312,-7364,4436
873806,1705,971,596,18512,6100,-464,-1328,-10142,4025
873816,1707,963,579,18672,6388,240,-1296,-8625,1712
873826,1706,965,600,18488,6212,-740,-1296,-5897,-702
873836,1709,959,612,19104,5540,-1872,-1296,-5308,-1465
873846,1706,959,611,19660,4880,-1240,-1312,-6976,-181
873856,1707,965,599,19676,4960,860,-1328,-7172,2160
873866,1709,966,601,18928,4640,2188,-1328,-4652,4572
873876,1687,965,597,17856,4768,2784,-1280,-984,6191
873886,1703,959,603,17084,5280,2220,-1280,2489,6455
873896,1709,965,602,15976,6060,1236,-1312,4715,5831
873906,1703,959,600,14968,6720,320,-1312,5321,4985
873916,1703,965,607,14344,7036,404,-1344,4469,4400
873926,1705,959,604,13324,7784,892,-1312,4218,4343
873936,1704,1005,611,12896,7620,820,-1312,4421,4564
873946,1709,959,611,12712,7540,980,-1312,4605,4379
873956,1707,959,599,12072,7748,1352,-1312,5334,4191
873966,1706,959,602,11340,8264,812,-1296,6279,4317
873976,1707,965,599,10820,8428,-180,-1312,6715,4125
873986,1708,959,597,10064,8556,-452,-1312,5859,3908
873996,1705,959,601,9668,8564,-284,-1296,4221,3693
874006,1679,954,601,9040,8348,-208,-1296,2450,3029
874016,1709,959,602,8668,8220,476,-1296,1285,2200
874026,1707,979,601,8316,7728,736,-1312,849,1319
874036,1707,965,603,8196,6796,348,-1312,627,561
874046,1707,958,606,8760,6276,1068,-1296,690,-338
874056,1709,965,601,8912,6376,1604,-1312,2425,-926
874066,1706,964,605,9144,6508,844,-1312,4705,-1271
874076,1705,965,601,9004,6804,76,-1296,5531,-1355
874086,1705,959,601,8816,6692,-252,-1296,4105,-1156
874096,1707,964,601,8764,6520,-32,-1296,2203,-1151
874106,1705,965,601,8780,6152,212,-1344,1454,-1650
874116,1705,960,602,8936,6220,724,-1280,2142,-2335
874126,1707,959,601,9020,6472,312,-1296,3377,-2860
874136,1699,964,602,9604,7004,-304,-1296,3775,-3138
874146,1704,958,603,9764,6832,-812,-1296,2520,-3284
874156,1704,957,604,9812,6712,244,-1328,646,-3001
874166,1705,971,603,9908,7072,884,-1312,-178,-2817
874176,1709,965,600,10076,6988,-172,-1296,243,-3511
874186,1705,959,599,10756,6544,-568,-1328,313,-4775
874196,1700,965,605,11960,5872,-796,-1344,-813,-5998
874206,1705,1047,611,12888,4816,-664,-1328,-2211,-6761
874216,1707,959,595,13848,3840,-204,-1328,-2749,-7045
874226,1708,965,606,14300,3232,344,-1328,-1922,-6786
874236,1711,959,603,14572,3344,552,-1296,586,-6061
874246,1707,966,600,14896,4104,1252,-1312,3470,-4718
874256,1707,965,589,14932,4732,216,-1280,5549,-3605
874266,1707,964,597,15096,5012,-1320,-1312,5456,-3393
874276,1707,951,601,15316,5108,-1736,-1312,4159,-3829
874286,1707,959,601,15704,5064,-1624,-1328,2860,-4330
874296,1705,965,599,15804,4952,-1216,-1280,2392,-4477
874306,1707,959,603,15988,4656,-980,-1312,2659,-4007
874316,1707,965,603,16068,4364,-1260,-1280,3004,-3345
874326,1709,959,600,16036,4144,-1552,-1312,3426,-2871
874336,1707,965,602,16064,4248,-1832,-1296,3573,-2585
874346,1705,960,601,16100,4704,-2012,-1280,3494,-2116
874356,1707,964,600,16228,4928,-2392,-1312,3150,-1676
874366,1707,965,603,15924,4688,-2780,-1312,2351,-1219
874376,1708,965,605,15956,4432,-2364,-1296,1254,-632
874386,1707,965,584,15816,3992,-2052,-1328,496,41
874396,1707,943,601,15568,3788,-1628,-1312,440,613
874406,1708,965,584,15104,3656,-1408,-1312,911,996
874416,1707,966,600,14852,3848,-1616,-1296,1320,1151
874426,1707,964,603,14308,3728,-2024,-1344,1367,1269
874436,1707,958,600,13668,3484,-2220,-1328,1025,1598
874446,1711,949,594,15228,2748,-2524,-1280,318,1808
874456,1704,957,639,26764,124,-8728,-1344,-1253,-5059
874466,1707,999,619,32767,-2824,-14948,-1296,-6994,-25454
874476,1705,964,541,32767,-5920,-8008,-1328,-10671,-32768
874486,1695,968,553,24672,-7284,-1612,-1328,-6938,-14654
874496,1693,965,583,15792,-2736,4824,-1328,2604,9403
874506,1704,960,666,15484,2124,5152,-1344,8371,30078
874516,1720,981,627,14960,3376,1296,-1328,9948,32767
874526,1708,951,599,11736,1628,-6212,-1296,8042,30758
874536,1689,967,587,10712,4144,-4484,-1312,5167,13947
874546,1692,957,553,11776,9488,3876,-1296,2640,-594
874556,1719,967,600,9384,9772,-4112,-1312,4615,-10884
874566,1705,965,612,9656,7900,-7700,-1312,-856,-18895
874576,1703,1005,623,8988,2896,-5440,-1296,-12846,-15209
874586,1705,956,627,14780,1996,928,-1312,-17530,-8412
874596,1709,958,597,20012,592,3436,-1312,-9954,-6584
874606,1707,964,575,22340,-820,-116,-1344,1606,-8730
874616,1706,960,583,21432,-124,-2816,-1312,10686,-8277
874626,1709,964,582,18684,1464,-4752,-1328,11893,-4043
874636,1689,960,597,17068,3744,-7036,-1296,8096,966
874646,1705,966,623,15584,6184,-8172,-1296,2597,4746
874656,1705,967,610,14864,8048,-6976,-1296,-1408,5950
874666,1704,967,605,14596,8148,-5232,-1328,-3584,4405
874676,1704,965,603,15000,6760,-3824,-1328,-5926,1502
874686,1707,959,604,15600,3980,-3100,-1328,-7925,-1979
874696,1704,959,602,16416,1996,-2580,-1312,-8006,-4331
874706,1711,960,601,17216,668,-2012,-1328,-6009,-4808
874716,1707,959,601,18184,464,-1392,-1296,-1834,-3773
874726,1706,958,595,17584,1684,-1312,-1296,2640,-952
874736,1706,959,595,16164,3516,-3120,-1328,5349,2060
874746,1709,979,597,15100,4848,-4412,-1344,5422,3038
874756,1705,965,601,14800,6168,-5156,-1312,4081,2005
874766,1707,959,598,15288,6576,-5592,-1312,1808,-320
874776,1703,959,601,15800,5916,-5648,-1296,-1330,-2505
874786,1705,964,605,15956,4524,-4252,-1296,-3845,-2682
874796,1705,969,602,16136,4184,-1948,-1312,-3316,-1073
874806,1707,960,600,16328,4232,-1312,-1344,-353,563
874816,1707,959,598,15892,4380,-2096,-1344,2190,1334
874826,1709,964,599,15684,5164,-3116,-1312,2776,1218
874836,1705,966,601,15728,5652,-3700,-1328,1461,426
874846,1707,959,603,15328,6100,-3448,-1312,32,-199
874856,1707,959,600,15024,6292,-2960,-1312,57,-343
874866,1707,960,600,15376,6468,-2528,-1328,851,-326
874876,1707,964,600,15436,6488,-3288,-1312,1163,-280
874886,1711,965,598,15812,6624,-3548,-1296,759,-442
874896,1706,965,601,16016,6208,-3888,-1312,-63,-973
874906,1705,959,601,15780,6148,-2564,-1312,-1000,-641
874916,1707,964,600,15812,6404,-2028,-1328,-558,-131
874926,1706,967,618,15516,6256,-2264,-1312,603,-305
874936,1705,960,600,15084,6512,-2188,-1296,1498,-436
874946,1707,949,597,15000,6584,-2884,-1312,1792,-1236
874956,1706,959,599,15424,7248,-3132,-1312,1542,-1993
874966,1707,959,598,16216,7348,-3944,-1328,1606,-2923
874976,1706,963,600,16328,7108,-3844,-1296,1223,-3110
874986,1705,959,554,15780,7116,-3344,-1328,709,-1931
874996,1707,965,599,15592,7688,-3480,-1296,1257,-860
875006,1707,959,599,15464,7744,-4044,-1312,2102,-1259
875016,1707,965,601,15480,8100,-4372,-1296,2199,-1798
875026,1707,965,600,15888,8152,-4420,-1328,1739,-2161
875036,1705,964,596,15500,8124,-4340,-1296,1406,-2104
875046,1705,963,596,15648,8412,-3992,-1360,1306,-1630
875056,1707,965,601,16284,7940,-4104,-1344,1310,-1617
875066,1707,959,601,16276,6972,-4556,-1360,253,-1576
875076,1705,960,595,16052,6196,-3736,-1312,-1089,-955
875086,1708,965,604,15340,5944,-2912,-1312,142,-690
875096,1707,965,590,14832,4676,-4560,-1296,3129,-1957
875106,1695,965,590,14600,4708,-2200,-1312,4383,-2773
875116,1706,960,597,15568,5656,-2960,-1312,6056,-3597
875126,1701,960,599,15908,6224,-4808,-1264,5078,-4124
875136,1705,965,606,15852,6932,-4864,-1312,3988,-3600
875146,1705,959,604,16060,6276,-6672,-1312,2797,-3478
875156,1705,958,611,15744,5552,-7120,-1312,2369,-3335
875166,1707,965,647,15944,5460,-5972,-1344,2886,-2785
875176,1699,965,600,15720,4300,-7100,-1296,3784,-2525
875186,1705,959,601,15552,3832,-7540,-1312,3605,-2389
875196,1705,965,603,15560,3732,-5900,-1312,3587,-1478
875206,1705,964,602,15600,2836,-6848,-1312,3879,-1021
875216,1703,957,595,15584,2036,-6224,-1344,3647,-1014
875226,1705,965,595,15680,2368,-4704,-1296,4526,-407
875236,1709,916,585,15968,2556,-5012,-1296,5878,22
875246,1707,960,597,16164,3596,-5276,-1328,7415,-304
875256,1705,965,594,17064,4216,-4488,-1360,7172,-366
875266,1707,965,600,16792,3636,-4016,-1280,5463,726
875276,1705,957,599,16976,3120,-4092,-1328,2345,1480
875286,1703,967,601,16228,3132,-1896,-1296,392,1971
875296,1709,939,599,15804,3560,-900,-1312,992,1975
875306,1701,969,590,15752,2960,-2536,-1296,1476,663
875316,1701,966,594,16864,3880,-1628,-1296,-382,-856
875326,1701,959,597,17644,4132,-868,-1328,-3785,-528
875336,1709,952,596,17476,5116,-384,-1328,-7890,1637
875346,1701,955,612,15532,5412,-2752,-1312,-10306,3677
875356,1711,957,612,14328,3900,-5388,-1312,-10389,2816
875366,1709,931,603,13720,1660,-8088,-1312,-11020,-454
875376,1705,959,595,14672,552,-6880,-1312,-11636,-3877
875386,1707,963,595,15472,-124,-7988,-1328,-11615,-6155
875396,1707,959,595,15768,-336,-7288,-1344,-9933,-5867
875406,1707,965,599,15876,160,-7020,-1312,-7529,-2950
875416,1705,965,601,16472,828,-9052,-1280,-5226,-243
875426,1707,959,603,15744,528,-8644,-1312,-3745,1671
875436,1707,964,599,14992,488,-9108,-1360,-3541,2488
875446,1705,964,589,15336,792,-6500,-1312,-2964,2449
875456,1705,959,597,15432,1128,-6388,-1312,-3450,1063
875466,1705,963,596,15820,560,-5716,-1280,-4174,-37
875476,1707,965,595,15624,-296,-5540,-1296,-4753,-899
875486,1705,964,599,15268,-780,-5232,-1328,-4271,-586
875496,1707,960,593,14992,-1892,-5508,-1296,-2710,-427
875506,1705,959,573,14976,-1960,-5936,-1312,-883,-520
875516,1706,965,595,14436,-1352,-6460,-1296,1442,-634
875526,1703,965,587,15300,324,-6456,-1328,4271,-1106
875536,1706,959,586,15792,2552,-6200,-1312,6302,-1496
875546,1706,965,595,16388,3512,-5764,-1296,7074,-1139
875556,1705,965,599,16856,3664,-4412,-1312,5840,281
875566,1705,965,607,17468,3132,-2960,-1296,3426,1867
875576,1705,959,613,16656,1428,-3672,-1296,-122,2042
875586,1705,955,611,15648,-588,-3664,-1312,-2163,307
875596,1710,953,588,15272,-892,-3204,-1280,-1275,-1408
875606,1705,965,592,14532,-1292,-6028,-1312,1034,-2630
875616,1703,959,602,14880,-1228,-5992,-1312,3205,-2788
875626,1709,957,603,14176,-2316,-7080,-1296,4389,-1534
875636,1709,966,601,14240,-1712,-6672,-1312,6003,670
875646,1703,967,572,15292,-152,-6604,-1344,9022,146
875656,1705,965,597,15792,2620,-5424,-1312,11359,-530
875666,1711,959,559,17500,3264,-3440,-1312,12936,-1633
875676,1705,960,603,18328,2024,-3268,-1328,10241,-1056
875686,1707,959,615,17880,2404,-3416,-1344,5868,117
875696,1707,964,613,17688,1828,-3800,-1344,1935,153
875706,1703,960,627,16764,264,-4096,-1296,-1479,-483
875716,1703,959,569,15872,-996,-5372,-1280,-3457,-1181
875726,1709,965,589,15144,-1720,-5868,-1296,-4039,-1205
875736,1707,959,584,15240,-1060,-7428,-1296,-2349,-1293
875746,1703,966,596,15568,-564,-7372,-1312,657,-1452
875756,1705,960,588,16272,-120,-6780,-1328,3181,-1155
875766,1705,965,604,16600,212,-5856,-1328,3450,-539
875776,1707,967,599,16416,40,-6620,-1264,1458,184
875786,1705,964,602,16180,-452,-5264,-1296,-1183,589
875796,1706,958,607,15608,-1272,-5028,-1312,-2967,608
875806,1707,959,613,15344,-2360,-5224,-1296,-4111,78
875816,1705,972,601,15812,-2556,-5028,-1328,-3462,-673
875826,1709,959,600,16080,-2260,-5784,-1296,-1423,-961
875836,1703,950,599,16352,-972,-6116,-1328,1815,-801
875846,1703,959,583,16628,692,-6292,-1280,4487,-422
875856,1706,890,600,16320,1128,-6396,-1312,4462,488
875866,1704,957,594,16312,1108,-6260,-1312,2536,1232
875876,1703,960,595,15716,1244,-6116,-1280,40,1367
875886,1707,957,590,15500,1276,-5972,-1328,-1770,1207
875896,1705,959,590,15200,668,-5644,-1280,-2556,353
875906,1705,960,590,15128,100,-5600,-1312,-2750,-374
875916,1703,958,594,15452,-252,-5424,-1312,-2214,-432
875926,1705,958,597,15524,-516,-5860,-1312,-1574,-207
875936,1705,959,596,15636,-812,-5604,-1312,-1304,108
875946,1705,957,593,15812,-860,-5056,-1312,-835,390
875956,1705,958,596,15988,-1024,-5432,-1312,-399,414
875966,1705,958,599,15940,-1576,-5700,-1296,-375,305
875976,1706,972,595,16108,-1332,-4784,-1312,179,266
875986,1707,959,599,16108,-732,-5268,-1280,1188,354
875996,1708,965,598,16104,192,-5848,-1280,1739,473
876006,1706,965,599,16076,1044,-6280,-1312,1626,577
876016,1705,965,599,15884,1208,-6012,-1296,928,610
876026,1706,895,604,15924,776,-5888,-1312,-555,536
876036,1705,958,597,15652,424,-6012,-1312,-2164,123
876046,1709,957,585,15764,552,-5940,-1280,-2334,-264
876056,1705,969,589,16120,724,-5716,-1312,-1003,-748
876066,1707,959,589,16692,1208,-5488,-1296,701,-611
876076,1703,959,572,16608,1788,-6032,-1328,1529,201
876086,1705,949,581,16576,2340,-6456,-1312,982,1052
876096,1707,955,591,16300,2376,-6492,-1328,-353,1555
876106,1711,957,599,15796,2332,-6208,-1312,-1984,1816
876116,1705,958,605,15400,1448,-6576,-1328,-3732,1700
876126,1706,960,600,15312,280,-6244,-1328,-5222,1224
876136,1705,983,602,15192,-160,-5616,-1280,-4969,809
876146,1705,965,611,15580,-216,-5936,-1296,-3163,368
876156,1705,964,602,16284,-188,-5692,-1296,-923,149
876166,1705,957,601,16924,104,-4900,-1296,765,459
876176,1705,957,596,17228,144,-4408,-1296,1298,956
876186,1705,959,595,17164,720,-4280,-1312,865,1240
876196,1707,955,587,16736,564,-4848,-1296,-244,1283
876206,1705,957,598,16092,768,-5712,-1296,-1712,1382
876216,1707,959,601,15464,580,-6544,-1296,-3164,1471
876226,1708,959,611,15024,-420,-7748,-1296,-4902,1223
876236,1707,965,603,14896,-988,-8000,-1312,-5840,948
876246,1706,966,603,15344,-844,-6856,-1280,-4830,716
876256,1706,965,606,15800,-1108,-6820,-1312,-2847,808
876266,1701,940,601,16220,-1252,-6532,-1312,-1375,1302
876276,1707,955,594,16172,-764,-5860,-1328,-417,2004
876286,1705,959,595,16180,452,-4976,-1312,439,2572
876296,1705,958,599,15984,1316,-4800,-1312,853,2694
876306,1707,965,590,15916,2072,-4460,-1312,609,2349
876316,1707,957,589,15796,2196,-4176,-1312,-70,2021
876326,1706,959,599,15824,1540,-4608,-1312,-1589,1891
876336,1705,965,629,15940,632,-4412,-1312,-3025,1307
876346,1707,959,597,15964,500,-4184,-1312,-2620,574
876356,1705,939,594,16288,472,-4204,-1328,-929,522
876366,1705,959,599,16368,900,-4680,-1280,639,1115
876376,1703,958,589,16432,1988,-4876,-1312,1794,1640
876386,1703,958,589,16312,2808,-5620,-1312,1818,2045
876396,1705,958,523,16092,3192,-6220,-1312,356,2098
876406,1705,959,589,15848,3256,-5696,-1328,-1026,1893
876416,1707,959,588,15812,2884,-5568,-1280,-2228,1682
876426,1707,964,595,15580,2256,-5384,-1280,-3104,1618
876436,1707,959,600,15604,1304,-5088,-1312,-3597,1751
876446,1703,959,599,15692,-344,-4900,-1280,-4086,1755
876456,1711,959,596,15840,-1268,-4204,-1328,-4268,2065
876466,1707,959,597,15996,-1756,-4152,-1296,-3847,1795
876476,1704,959,603,16212,-1772,-4016,-1344,-2762,1398
876486,1702,958,597,16596,-1436,-3900,-1296,-1441,1277
876496,1707,959,601,16976,-508,-4372,-1312,-355,1332
876506,1695,959,611,17388,376,-4532,-1328,312,1313
876516,1705,958,599,17448,1324,-4636,-1296,514,1526
876526,1703,957,599,17164,2224,-5348,-1312,406,1889
876536,1696,959,596,16992,2444,-5384,-1312,23,1918
876546,1705,965,589,16984,2516,-5024,-1312,-557,1816
876556,1705,967,595,16540,1916,-5660,-1312,-2273,2099
876566,1707,959,590,16360,1460,-5752,-1296,-4336,2329
876576,1705,959,602,16112,344,-5436,-1280,-5317,2240
876586,1706,959,604,16220,-820,-5052,-1312,-5458,1976
876596,1705,965,603,16124,-1448,-4688,-1328,-4625,1874
876606,1707,958,594,16412,-1752,-4388,-1280,-3183,2063
876616,1704,969,590,16616,-1224,-4088,-1280,-1384,2144
876626,1707,959,599,16624,-376,-4028,-1280,439,2179
876636,1704,953,597,16996,1048,-4352,-1280,1712,2380
876646,1705,959,594,16936,2592,-4868,-1296,2178,2401
876656,1695,959,601,17292,3724,-5176,-1312,1590,2230
876666,1707,963,606,17272,3456,-4932,-1296,-107,2296
876676,1704,965,615,17312,2312,-4712,-1312,-2670,2543
876686,1706,965,609,17096,1220,-4240,-1280,-4781,2511
876696,1708,967,629,16968,224,-3832,-1280,-4243,1700
876706,1703,959,587,17488,-408,-3184,-1296,-1825,832
876716,1705,965,587,18756,384,-2464,-1296,1583,523
876726,1704,965,590,18728,1400,-3012,-1296,4585,940
876736,1703,959,599,19204,2604,-3144,-1280,5406,1830
876746,1704,957,600,19248,3296,-2880,-1296,4761,2764
876756,1703,950,595,19064,3552,-3456,-1312,2721,3143
876766,1707,954,586,18776,3672,-3648,-1264,376,3232
876776,1706,965,580,18532,3380,-3732,-1296,-1938,2843
876786,1705,956,581,18416,2620,-3100,-1296,-3010,2310
876796,1707,959,583,18224,2192,-3784,-1296,-3292,1905
876806,1707,959,585,18552,1464,-4392,-1296,-3502,1731
876816,1696,960,587,18528,584,-3068,-1280,-2951,2433
876826,1703,958,589,18400,660,-2788,-1328,-1807,3417
876836,1705,957,590,17944,636,-3948,-1312,-966,3660
876846,1703,959,588,17948,992,-4068,-1296,-1005,3183
876856,1705,955,593,17972,1268,-3164,-1296,-1176,2816
876866,1706,958,588,17888,1264,-3108,-1280,-1898,2918
876876,1701,958,587,17732,1444,-3636,-1280,-3204,3255
876886,1703,951,593,17828,1748,-3752,-1312,-4051,3055
876896,1701,973,610,18316,1640,-3724,-1312,-4139,2296
876906,1703,959,605,19344,1756,-3888,-1296,-4173,934
876916,1699,965,612,20024,1904,-3972,-1280,-5064,148
876926,1699,971,619,20836,1864,-4380,-1312,-6284,-240
876936,1705,967,614,21332,1176,-5244,-1312,-7622,-714
876946,1700,917,589,20484,1732,-5220,-1280,-7921,-441
876956,1715,931,569,19540,2968,-4004,-1328,-6591,1341
876966,1708,958,583,19204,3148,-2044,-1344,-5778,4689
876976,1707,967,568,19336,1660,-3296,-1312,-9274,6379
876986,1747,968,567,18588,1452,-3780,-1296,-14974,5054
876996,1703,967,585,18276,2684,-628,-1312,-17112,2336
877006,1707,967,581,18968,3320,-792,-1296,-15224,-1206
877016,1709,969,563,21068,2552,-3468,-1296,-14017,-4329
877026,1707,969,581,21448,2080,-4908,-1312,-14179,-5485
877036,1705,970,599,20824,1372,-5424,-1296,-13812,-4134
877046,1706,971,555,21008,1028,-3412,-1296,-12271,-580
877056,1703,979,595,21196,1320,-108,-1296,-8906,3450
877066,1703,955,590,20284,1928,964,-1296,-4069,6576
877076,1703,957,596,19028,3440,140,-1312,664,7714
877086,1705,957,597,17624,5300,-1360,-1312,3626,7452
877096,1705,956,599,17408,6788,-2272,-1312,3341,6598
877106,1706,957,602,17580,7720,-2628,-1312,1092,5664
877116,1705,969,599,17648,7896,-2452,-1296,-2586,5125
877126,1705,964,595,16996,7972,-820,-1312,-5731,5291
877136,1705,958,601,16672,8124,1000,-1312,-6831,6086
877146,1706,958,605,15832,7944,1612,-1312,-5711,6378
877156,1699,959,595,15084,7396,1532,-1312,-3795,6340
877166,1705,957,599,14596,7136,1600,-1344,-1940,6188
877176,1706,958,596,13992,6620,1236,-1280,141,5879
877186,1706,958,595,13808,6176,1036,-1312,1955,5538
877196,1701,960,590,13808,6292,1400,-1296,3531,5510
877206,1690,959,596,13344,6784,1424,-1248,5632,5335
877216,1696,958,587,13292,8152,1748,-1280,8392,5343
877226,1703,958,595,12888,9160,708,-1296,10322,5830
877236,1703,959,599,12624,10008,-592,-1312,10675,6094
877246,1701,957,593,12336,11016,-1572,-1296,9923,6019
877256,1703,958,590,11892,11296,-2204,-1328,7568,5685
877266,1705,958,599,11508,11284,-2132,-1264,4911,5375
877276,1703,957,594,11384,11000,-1280,-1312,3221,4638
877286,1705,959,597,10980,10232,-344,-1296,3076,4136
877296,1703,957,595,10832,9704,372,-1264,3730,4433
877306,1700,901,591,10732,9732,1160,-1296,5020,5175
877316,1703,959,585,10768,10152,960,-1248,6458,5693
877326,1707,958,589,10364,10512,-112,-1296,7011,5595
877336,1706,957,597,9932,10624,-1096,-1312,6036,4987
877346,1705,959,597,9624,11088,-640,-1296,5049,3965
877356,1704,959,594,9260,10968,-52,-1296,4529,2697
877366,1703,915,589,8804,10808,924,-1344,4178,1896
877376,1704,957,584,8664,11016,1104,-1328,3998,1403
877386,1706,958,589,8788,10992,448,-1328,3652,1071
877396,1703,957,591,8912,10528,244,-1312,2911,580
877406,1704,957,596,9288,10168,1020,-1296,2170,-116
877416,1704,969,596,9396,9800,1524,-1312,2117,-720
877426,1701,955,595,9628,9636,1644,-1296,2532,-990
877436,1707,957,589,9872,10076,1724,-1296,3210,-1000
877446,1705,972,595,10200,10140,552,-1344,3389,-680
877456,1702,957,596,10380,9892,-152,-1312,2737,-617
877466,1703,958,599,10408,9244,-208,-1312,1478,-677
877476,1704,958,598,10480,8744,416,-1296,269,-763
877486,1706,959,589,10588,9112,1272,-1296,561,-1063
877496,1707,958,589,10628,9296,668,-1312,1560,-1399
877506,1705,958,590,10968,8992,64,-1312,1755,-1907
877516,1705,967,597,11168,8820,72,-1312,993,-2131
877526,1699,958,595,11248,8392,368,-1312,-51,-1992
877536,1703,959,597,11424,7444,536,-1328,-310,-2199
877546,1704,958,595,11332,7220,444,-1312,-26,-2782
877556,1699,957,589,11244,7040,584,-1312,762,-3318
877566,1707,957,589,11464,7316,328,-1296,2185,-3886
877576,1703,958,593,11408,7652,-692,-1312,2919,-3913
877586,1705,957,593,11572,8236,-1004,-1280,2462,-3559
877596,1701,965,589,11436,8308,-1752,-1280,1350,-3075
877606,1702,957,595,11432,8136,-1904,-1312,-259,-2394
877616,1705,957,595,11408,7716,-1816,-1328,-1563,-2128
877626,1705,956,597,11664,6992,-1704,-1328,-2400,-2137
877636,1717,957,595,11804,5960,-1396,-1296,-2542,-2525
877646,1707,957,594,12312,4968,-1252,-1328,-2696,-2693
877656,1707,957,597,12388,4044,-488,-1344,-2195,-2953
877666,1705,959,595,12720,3540,212,-1328,-495,-2701
877676,1719,958,589,13060,3836,120,-1296,2678,-2930
877686,1707,957,590,13168,3852,-1220,-1312,5906,-3592
877696,1705,956,591,13728,3776,-2280,-1312,7168,-3948
877706,1704,959,593,13896,4348,-2100,-1344,6339,-3397
877716,1703,958,591,14088,4724,-1588,-1328,4885,-2187
877726,1705,947,595,14304,4656,-1556,-1296,3681,-1131
877736,1707,959,597,14280,4484,-1616,-1312,3401,-1203
877746,1705,957,595,14640,4168,-1744,-1312,3921,-2154
877756,1707,957,615,15060,3656,-2408,-1312,4450,-3316
877766,1705,959,594,15360,3388,-2588,-1280,4618,-3994
877776,1706,957,589,15604,3284,-1980,-1328,4661,-3559
877786,1705,956,589,15528,3676,-1436,-1312,5382,-2259
877796,1705,958,595,15316,3784,-2144,-1312,6601,-1158
877806,1705,959,591,15300,3948,-2704,-1296,7444,-674
877816,1703,957,595,15188,3784,-2816,-1280,7327,-612
877826,1704,958,594,15096,4144,-2428,-1328,6338,-557
877836,1688,959,597,14888,4576,-1760,-1312,5513,-403
877846,1705,958,595,15068,4760,-2332,-1280,5079,-891
877856,1706,958,590,15052,4784,-2788,-1312,4845,-1666
877866,1707,959,597,15472,4448,-3232,-1296,4351,-2201
877876,1704,956,595,15460,3792,-3236,-1328,3409,-2235
877886,1686,959,589,15440,3572,-2512,-1328,2458,-1555
877896,1705,959,589,16672,3440,-3360,-1312,2367,-1263
877906,1702,957,600,19956,4124,-4816,-1328,3000,-3457
877916,1705,959,587,23900,5692,-5744,-1312,3822,-7341
877926,1705,965,582,27008,3432,-12348,-1312,2472,-12832
877936,1695,965,603,28904,-1868,-18496,-1312,-6460,-17697
877946,1704,959,605,29208,-4772,-9656,-1280,-18289,-13656
877956,1705,957,589,26800,-4956,4308,-1344,-20907,2258
877966,1695,959,584,20872,-2528,8640,-1328,-11091,18999
877976,1707,965,589,14904,780,7196,-1312,3758,29026
877986,1708,974,593,9900,1644,-580,-1344,14926,29300
877996,1709,951,586,9036,2416,-4064,-1312,20032,18932
878006,1705,949,575,11088,2044,-9060,-1312,15427,4387
878016,1705,960,595,13700,1856,-9484,-1296,4676,-7467
878026,1699,955,589,10332,3560,-12296,-1296,-6121,-17091
878036,1703,955,595,17576,3820,2192,-1296,-12749,-21414
878046,1701,957,595,18488,2608,2448,-1344,-10626,-14842
878056,1701,958,600,20804,1028,280,-1312,-4299,-5834
878066,1705,957,600,20576,-416,-1156,-1296,1089,3599
878076,1707,959,590,19020,-520,-1496,-1328,3289,9997
878086,1705,959,569,17164,72,-2412,-1344,1944,12248
878096,1695,959,587,15596,912,-2292,-1328,-271,10262
878106,1703,960,600,14632,1456,-1400,-1280,-1822,5576
878116,1706,957,601,13892,856,-976,-1328,-2364,141
878126,1705,957,597,14092,-92,-284,-1296,-2398,-3846
878136,1705,988,589,14808,-700,448,-1344,-1134,-5475
878146,1705,956,575,16116,-708,420,-1312,1134,-5358
878156,1704,939,585,17156,-12,-172,-1312,3427,-4437
878166,1705,958,588,17740,1124,-1512,-1312,5060,-3329
878176,1705,959,596,17376,2328,-2980,-1296,4963,-2349
878186,1703,957,597,16660,3072,-3912,-1312,3100,-1355
878196,1704,958,597,16160,3140,-4636,-1344,425,-695
878206,1705,959,597,16032,2732,-4840,-1344,-1762,-874
878216,1705,959,595,15808,1728,-4876,-1344,-2640,-1658
878226,1703,959,589,15984,1184,-4456,-1312,-1953,-2484
878236,1676,955,582,16556,1248,-3824,-1312,-384,-2595
878246,1705,959,593,17152,1660,-4696,-1344,724,-2013
878256,1703,959,596,16968,1820,-4988,-1328,588,-594
878266,1705,959,595,15980,2096,-4156,-1280,1143,927
878276,1707,959,583,15852,2440,-4976,-1328,2340,933
878286,1703,959,589,15956,2692,-5104,-1312,2331,422
878296,1703,958,593,16180,2864,-5016,-1312,1164,8
878306,1692,957,593,16020,2660,-4524,-1312,282,-79
878316,1702,959,595,15572,2412,-4060,-1328,296,147
878326,1705,957,587,15852,3016,-3552,-1296,1637,335
878336,1707,959,590,16664,3836,-4296,-1296,3398,37
878346,1695,959,587,17088,4476,-5260,-1312,3717,-358
878356,1688,959,590,16696,4588,-5240,-1328,2477,103
878366,1703,959,595,16344,4712,-4776,-1312,926,1162
878376,1704,958,591,15772,4668,-3184,-1328,-318,2385
878386,1705,958,594,15452,4984,-1472,-1296,198,3147
878396,1704,958,585,15760,5688,-1504,-1312,2137,2246
878406,1706,957,570,16180,6336,-2192,-1296,3447,191
878416,1703,957,595,15728,5856,-3288,-1328,2248,-1117
878426,1703,959,591,15304,5860,-3076,-1312,458,-789
878436,1705,957,595,15844,6584,-1740,-1296,213,-72
878446,1702,959,589,16236,7272,-1728,-1328,2123,-255
878456,1695,959,584,16216,7440,-2200,-1328,3582,-676
878466,1704,958,587,16024,7944,-2548,-1328,3087,-814
878476,1704,971,593,16192,8140,-3336,-1312,2084,-947
878486,1703,958,589,16076,8060,-3024,-1312,17,-815
878496,1688,959,589,16408,8260,-1676,-1312,-1163,-274
878506,1707,951,594,16572,8188,-1340,-1312,-1177,-380
878516,1707,958,601,16232,7180,-2128,-1312,-1709,-943
878526,1710,958,595,16152,6336,-2008,-1312,-2752,-1533
878536,1705,1013,594,16156,5528,-2412,-1312,-2824,-2699
878546,1705,957,588,16124,4516,-2484,-1296,-2467,-3490
878556,1703,958,594,15664,4604,-1920,-1312,-1694,-3243
878566,1705,956,587,15764,5900,-2340,-1312,506,-2948
878576,1705,957,588,16092,6700,-4588,-1312,2162,-3395
878586,1705,959,595,16124,6356,-6476,-1312,792,-3812
878596,1693,960,598,16440,6068,-7052,-1296,-2231,-3539
878606,1703,957,589,16836,5732,-6032,-1328,-4070,-2852
878616,1688,955,587,16684,5416,-5292,-1328,-3403,-2173
878626,1704,959,586,16272,4416,-5208,-1312,-2160,-1459
878636,1704,958,595,15648,3932,-5136,-1312,-2041,-265
878646,1703,959,587,15756,4416,-4500,-1328,-1528,95
878656,1703,959,585,16212,4824,-4768,-1360,-513,-906
878666,1703,965,591,16600,4852,-5136,-1344,-264,-2149
878676,1701,959,591,16444,4640,-4600,-1328,-670,-2262
878686,1703,959,588,16332,4860,-3908,-1312,-1004,-1367
878696,1704,958,593,16256,4688,-4400,-1296,-870,-588
878706,1704,959,594,16068,3788,-5436,-1296,-1267,-898
878716,1705,958,587,15900,3264,-5168,-1312,-2252,-1518
878726,1706,959,590,15668,2668,-5488,-1296,-2858,-2253
878736,1703,957,583,15744,2064,-5632,-1312,-2975,-3290
878746,1701,957,583,15316,1056,-5616,-1312,-2864,-3194
878756,1703,957,587,15188,1468,-5312,-1312,-928,-2343
878766,1706,957,583,15172,1184,-6280,-1312,1644,-1733
878776,1704,1016,597,14788,84,-7336,-1312,2567,-1065
878786,1704,959,584,15920,-320,-5948,-1312,2308,-439
878796,1707,959,581,16324,-696,-5288,-1312,2362,-173
878806,1702,959,571,16104,432,-5092,-1296,3628,-1
878816,1702,957,586,16420,1008,-5436,-1312,4793,-230
878826,1707,959,591,16284,1304,-5624,-1312,3436,-52
878836,1705,964,599,16044,984,-5292,-1328,348,1065
878846,1707,957,597,16140,956,-3660,-1312,-1807,2041
878856,1705,958,589,15792,364,-2924,-1296,-1158,1599
878866,1706,957,587,15400,376,-2428,-1312,944,720
878876,1706,959,591,15756,364,-2076,-1312,2842,-198
878886,1704,957,589,16368,-56,-3000,-1296,2672,-1129
878896,1704,957,581,16636,364,-3128,-1296,1471,-1539
878906,1704,958,585,16544,976,-3276,-1296,1136,-1269
878916,1701,957,591,16220,844,-4832,-1296,549,-909
878926,1703,958,602,15716,264,-5840,-1312,-920,-581
878936,1707,964,595,15484,124,-5704,-1296,-1818,-189
878946,1703,967,591,15440,-324,-5692,-1360,-1671,-109
878956,1705,957,591,14964,-180,-5604,-1312,-294,-270
878966,1701,958,586,15756,-256,-4828,-1296,1048,-287
878976,1703,958,584,16048,-716,-5040,-1280,1833,-370
878986,1704,959,583,15988,-1148,-5188,-1296,2097,-271
878996,1703,956,584,15916,-2104,-5200,-1328,2264,237
879006,1704,959,585,15568,-2476,-4648,-1312,3349,738
879016,1705,966,581,15624,-2312,-4120,-1344,5732,602
879026,1705,968,585,15968,-1876,-4344,-1312,8234,-219
879036,1703,971,567,16352,-732,-4304,-1280,9478,-870
879046,1705,977,587,16880,464,-3868,-1296,9235,-781
879056,1704,987,599,17220,1064,-4580,-1312,7790,-540
879066,1704,1031,601,17016,768,-4820,-1312,4928,-34
879076,1702,1169,599,16672,600,-4144,-1312,2832,481
879086,1705,1210,589,16132,-248,-4788,-1312,1621,310
879096,1703,1235,595,15860,-440,-5348,-1296,1263,-21
879106,1705,1115,588,15948,-192,-5000,-1280,2086,-457
879116,1703,950,582,16372,188,-5116,-1312,2760,-600
879126,1706,905,580,16396,432,-5564,-1296,2979,-379
879136,1703,932,581,16464,1048,-5596,-1344,2640,-78
879146,1705,903,594,16292,1128,-6080,-1296,1836,323
879156,1701,902,590,16304,580,-6064,-1312,399,415
879166,1705,920,589,15984,248,-5072,-1280,-558,502
879176,1705,919,573,16044,164,-5360,-1296,-540,379
879186,1705,906,582,15976,428,-5228,-1328,30,363
879196,1710,879,587,16276,112,-4584,-1328,92,465
879206,1703,889,594,16588,-316,-3476,-1312,-559,664
879216,1705,839,597,16660,-1024,-3316,-1312,-935,582
879226,1703,824,585,16088,-960,-4068,-1328,-614,90
879236,1703,887,584,15872,-508,-4996,-1296,350,-291
879246,1702,943,587,16036,-16,-5680,-1280,1200,-593
879256,1701,957,585,16156,380,-5368,-1264,1316,-459
879266,1704,974,589,16232,432,-4996,-1312,776,21
879276,1702,909,590,16500,624,-4820,-1296,-391,482
879286,1702,843,595,16412,-100,-4856,-1296,-1947,399
879296,1705,856,585,16132,-564,-4232,-1312,-2678,310
879306,1703,887,581,15984,-856,-4436,-1296,-2400,67
879316,1703,924,586,15964,-1108,-4424,-1296,-1525,-239
879326,1693,911,583,16200,-1324,-4612,-1312,-875,-350
879336,1704,947,583,16152,-1064,-4720,-1264,-280,-228
879346,1704,981,587,16148,-528,-5096,-1312,457,-207
879356,1703,982,591,16288,-316,-5436,-1296,764,-294
879366,1706,986,595,16112,-308,-5692,-1296,80,-152
879376,1703,982,549,16044,-284,-5428,-1280,-821,97
879386,1703,960,591,16256,-80,-4768,-1280,-918,0
879396,1703,935,588,16136,-120,-4792,-1312,-660,-105
879406,1703,887,587,16216,-520,-4952,-1296,-822,-166
879416,1699,890,589,16592,-760,-4548,-1328,-1168,-417
879426,1703,939,586,16400,-1496,-4892,-1280,-1464,-487
879436,1706,920,583,16340,-1424,-5224,-1280,-1334,-348
879446,1705,931,584,16280,-1256,-5532,-1264,-497,-274
879456,1705,923,587,16092,-320,-5800,-1280,611,192
879466,1703,873,594,16132,-224,-6832,-1296,486,504
879476,1705,839,591,16244,-256,-6900,-1312,-1298,622
879486,1704,719,594,16368,-212,-7068,-1280,-3130,594
879496,1704,717,588,16516,92,-6860,-1328,-4051,702
879506,1704,920,585,16500,-140,-5912,-1296,-3991,1034
879516,1705,1174,590,16548,-96,-4880,-1296,-3178,1760
879526,1711,1095,587,16324,-288,-4732,-1312,-2590,1882
879536,1704,1042,594,16056,-528,-4212,-1312,-2400,1757
879546,1701,907,590,16088,-1284,-4036,-1296,-2501,1244
879556,1705,782,567,15948,-1392,-3864,-1296,-2281,884
879566,1701,775,587,15828,-1436,-4884,-1328,-1708,664
879576,1703,757,583,16184,-744,-5472,-1296,-1285,458
879586,1707,807,583,16368,-104,-4984,-1280,-1089,553
879596,1703,1591,589,16756,744,-5036,-1264,-1120,875
879606,1704,1245,585,16604,1456,-5352,-1328,-1747,1044
879616,1704,1068,585,16552,2228,-5180,-1312,-2197,1266
879626,1705,1004,593,16284,2324,-6092,-1312,-2580,1241
879636,1702,965,581,16196,2580,-5464,-1312,-2746,1138
879646,1703,950,590,15916,2800,-5832,-1312,-2669,1211
879656,1701,943,593,16396,1908,-6056,-1280,-3667,1136
879666,1705,954,587,16496,720,-4712,-1312,-4784,1164
879676,1703,939,581,16504,16,-4584,-1312,-4985,1342
879686,1705,939,583,16472,-248,-4964,-1296,-4397,1290
879696,1702,952,587,16480,-336,-4392,-1312,-3486,1271
879706,1705,941,594,16548,-352,-4312,-1296,-2838,1630
879716,1705,938,597,16348,-472,-4476,-1280,-2804,1837
879726,1703,939,595,16480,-120,-4252,-1312,-2675,1724
879736,1704,941,587,16644,408,-4768,-1296,-2237,1262
879746,1703,940,582,16692,1008,-5152,-1328,-1767,1062
879756,1706,941,585,16788,1680,-5592,-1296,-1779,1344
879766,1704,941,583,16508,1612,-6060,-1296,-2454,1838
879776,1704,941,587,16324,1448,-5756,-1280,-3519,2213
879786,1705,941,590,16236,720,-5188,-1296,-4221,2219
879796,1693,940,594,16176,-32,-4640,-1328,-4268,2056
879806,1703,937,603,16400,-1044,-3916,-1280,-3598,1979
879816,1703,940,599,16464,-1436,-2904,-1296,-2140,2058
879826,1707,941,601,16288,-1600,-2868,-1280,-312,2086
879836,1703,941,591,16368,-1504,-3276,-1312,1495,1896
879846,1703,941,586,16416,-548,-3720,-1312,3054,1753
879856,1703,909,597,16844,1080,-4840,-1312,4439,1601
879866,1701,940,597,17204,1936,-5748,-1280,4507,1689
879876,1711,941,587,17664,2628,-5636,-1280,3499,2059
879886,1705,939,589,17660,2128,-5664,-1280,1876,2636
879896,1703,941,563,17924,1396,-5384,-1296,-568,3099
879906,1704,942,595,17512,232,-4476,-1280,-2629,3352
879916,1707,922,587,17396,-344,-4724,-1280,-3069,3181
879926,1703,940,571,17708,-872,-4496,-1280,-2282,2603
879936,1705,941,566,18124,-892,-3944,-1280,-436,2221
879946,1704,941,569,18800,-440,-3804,-1296,1321,2291
879956,1692,939,575,19124,-176,-4000,-1264,1879,2597
879966,1691,943,569,19176,592,-3768,-1296,1568,2750
879976,1702,940,581,19520,252,-3776,-1312,620,2863
879986,1704,947,585,19468,-312,-3640,-1280,-892,2832
879996,1703,940,573,19148,-500,-3444,-1296,-2077,2850
880006,1703,939,571,19584,-824,-3564,-1296,-2300,2718
880016,1701,941,581,19536,-1344,-3780,-1280,-2106,2532
880026,1703,940,581,19388,-1648,-3772,-1296,-2008,2684
880036,1704,939,583,19208,-1916,-3500,-1280,-2091,3367
880046,1703,941,581,19000,-2484,-3816,-1296,-2634,3485
880056,1704,908,574,18532,-2668,-3872,-1264,-3319,3454
880066,1701,941,580,18680,-2852,-3984,-1312,-3910,3097
880076,1705,939,581,18812,-3140,-3588,-1312,-4259,2697
880086,1700,943,594,19436,-3312,-3428,-1280,-4456,2330
880096,1700,941,595,20584,-3228,-3844,-1296,-4648,1578
880106,1692,946,597,21388,-2224,-3732,-1296,-4168,770
880116,1703,990,607,21004,-1024,-3980,-1280,-2694,932
880126,1699,1095,613,21308,160,-4488,-1280,-1148,1977
880136,1705,1048,604,21660,1308,-3488,-1280,-1138,3529
880146,1699,714,597,21584,2272,-3572,-1312,-3307,5135
880156,1699,489,587,21372,2804,-4028,-1296,-6910,5831
880166,1705,591,571,21532,2492,-3976,-1248,-10347,5490
880176,1704,565,535,20816,2680,-2496,-1312,-12157,5525
880186,1704,659,533,20644,3928,-4076,-1296,-11937,5297
880196,1703,843,541,20400,5724,-4464,-1280,-9432,3518
880206,1704,1383,567,21564,6628,-3752,-1296,-6835,1149
880216,1705,1439,581,22800,6440,-3136,-1296,-6939,-220
880226,1705,1145,580,23188,7236,-2552,-1312,-8306,369
880236,1704,1023,581,22104,8232,-2512,-1280,-9429,2559
880246,1705,971,582,20748,9076,-2196,-1296,-9189,5660
880256,1740,955,584,19588,9820,-928,-1296,-8146,7918
880266,1709,933,588,18160,10032,588,-1264,-6771,9251
880276,1707,919,585,16856,9640,772,-1312,-5580,9217
880286,1705,919,587,15344,9120,304,-1296,-5011,8179
880296,1706,923,586,14500,9044,308,-1280,-4938,6548
880306,1707,920,599,13940,9184,1316,-1264,-4930,5175
880316,1700,925,587,13524,9380,2860,-1264,-4352,4934
880326,1698,927,597,12400,9320,3592,-1312,-2010,5227
880336,1696,924,603,11780,8704,3328,-1280,1143,5429
880346,1691,935,603,10940,9100,3064,-1280,4035,5156
880356,1690,955,589,10308,9764,1772,-1280,6690,4215
880366,1699,932,586,10304,10680,1412,-1296,8211,2795
880376,1699,933,597,10528,11064,496,-1312,8433,1073
880386,1702,933,587,10572,11460,-176,-1312,7830,-538
880396,1700,931,595,10744,11064,-196,-1296,6902,-1579
880406,1699,933,589,10564,11212,944,-1280,6043,-1234
880416,1695,928,588,9964,10860,948,-1312,6314,-194
880426,1693,928,587,9148,10328,1008,-1280,6667,977
880436,1700,928,569,8764,10152,356,-1312,6769,1739
880446,1695,931,569,8028,9736,-20,-1296,5674,1967
880456,1701,931,570,7632,10076,48,-1312,4113,1359
880466,1703,931,573,7168,10612,708,-1280,3359,667
880476,1705,932,583,7028,11212,552,-1280,3418,164
880486,1705,931,583,7032,11568,60,-1280,2913,342
880496,1705,933,583,7164,11464,-452,-1296,1810,518
880506,1703,933,583,7264,10720,-888,-1312,-146,329
880516,1703,933,587,7160,9460,296,-1312,-1898,-219
880526,1701,920,587,7176,7972,1308,-1328,-2190,-658
880536,1701,925,586,7180,7244,2280,-1296,-1622,-732
880546,1701,932,583,7420,7224,3084,-1264,554,-717
880556,1703,933,579,7956,7812,2140,-1312,3169,-670
880566,1705,932,582,8320,8980,560,-1312,3816,-582
880576,1703,932,583,8564,9392,-368,-1296,2575,-905
880586,1703,942,585,8472,9280,-964,-1296,27,-1328
880596,1703,931,589,8180,9048,-492,-1328,-2355,-1415
880606,1701,933,586,8068,8424,-12,-1296,-2915,-1504
880616,1703,933,583,8416,8192,648,-1312,-2348,-1879
880626,1708,935,581,8364,8224,236,-1296,-1385,-2339
880636,1702,933,580,9056,7908,-1048,-1328,-889,-3477
880646,1701,934,601,9496,7316,-1712,-1296,-1793,-4836
880656,1701,934,589,9840,6676,-1320,-1296,-3466,-5572
880666,1700,939,589,10108,6616,-216,-1312,-4314,-5575
880676,1703,935,583,10640,6776,532,-1296,-3230,-5385
880686,1704,935,585,11060,6860,-236,-1312,-1260,-5486
880696,1702,927,588,11236,6412,-1456,-1312,-312,-5519
880706,1702,935,593,11416,5664,-2080,-1328,-1249,-5260
880716,1705,949,597,11816,5032,-1320,-1312,-2753,-4629
880726,1702,936,596,12184,4692,32,-1296,-2815,-3908
880736,1704,933,602,12776,3592,856,-1296,-1292,-3538
880746,1704,933,589,12752,2928,1384,-1312,1454,-3504
880756,1705,935,588,12724,2484,804,-1296,5511,-3896
880766,1704,935,581,13200,2820,144,-1312,9636,-4960
880776,1707,934,573,13620,4208,-564,-1296,13589,-6050
880786,1707,935,573,14228,5820,-1628,-1296,16799,-7007
880796,1705,937,574,14796,6964,-3588,-1280,18052,-7664
880806,1703,935,575,15520,7440,-5556,-1312,16518,-7472
880816,1701,903,575,16588,8096,-6844,-1312,12706,-6251
880826,1703,935,575,17460,8956,-6236,-1312,8337,-4430
880836,1703,936,581,17772,8844,-6012,-1296,4731,-2245
880846,1703,937,580,17424,8472,-5972,-1312,1764,-174
880856,1705,935,583,16756,7232,-5460,-1312,-1293,1462
880866,1703,937,587,16448,5788,-4724,-1280,-4124,2376
880876,1704,935,585,16332,4684,-3916,-1344,-6183,2366
880886,1704,937,585,15944,3300,-2496,-1296,-6909,1347
880896,1703,936,585,15552,2596,-1156,-1328,-5862,553
880906,1707,937,584,15072,2260,-8,-1328,-3605,61
880916,1704,937,585,15980,1864,-1188,-1296,-911,-875
880926,1701,927,589,18896,1976,-3260,-1280,169,-4062
880936,1710,939,551,21408,4328,-1328,-1328,1741,-6479
880946,1706,935,585,23040,3600,-6476,-1312,2087,-9371
880956,1705,941,607,24904,424,-9260,-1312,-3042,-9270
880966,1705,934,617,24548,-2752,-4120,-1296,-10581,-3472
880976,1703,934,571,22624,-3388,2364,-1328,-10363,5710
880986,1701,939,555,19700,-1408,2840,-1296,-2287,12197
880996,1703,939,559,15216,484,-500,-1296,8617,13158
881006,1706,939,575,11012,1888,-5452,-1312,14889,9501
881016,1707,940,572,10964,2800,-6140,-1312,15172,4957
881026,1700,938,587,12304,3428,-9872,-1312,7616,775
881036,1701,935,601,12024,2516,-4408,-1328,-3744,-4753
881046,1703,934,590,17428,3156,-4008,-1328,-11239,-5407
881056,1701,935,594,19280,3216,-2644,-1344,-12062,-4689
881066,1701,936,584,19508,360,-888,-1344,-8023,-2815
881076,1703,937,581,19292,-1460,-692,-1312,-2443,197
881086,1704,937,580,18428,-1748,-1288,-1280,1986,3773
881096,1704,965,581,17128,-880,-1660,-1328,3557,6438
881106,1704,943,583,16200,840,-1712,-1280,3556,7115
881116,1703,939,584,15252,2076,-2288,-1312,3386,5383
881126,1703,937,585,14768,2844,-2616,-1328,3496,2227
881136,1703,939,584,14864,3100,-2868,-1312,2720,-865
881146,1703,937,584,15908,2784,-3436,-1328,689,-2833
881156,1704,938,584,16712,2156,-3012,-1280,-1800,-3142
881166,1704,939,585,17232,1896,-1520,-1344,-3041,-1676
881176,1703,939,588,17548,1832,-948,-1296,-2129,462
881186,1703,939,585,17292,1680,-1196,-1296,-265,1909
881196,1704,938,582,16752,1748,-1640,-1296,884,2169
881206,1683,938,584,16308,2192,-1848,-1312,912,1657
881216,1703,939,583,15588,2652,-2204,-1312,552,512
881226,1704,938,583,15476,2972,-2500,-1296,189,-752
881236,1703,939,585,15700,3208,-2832,-1296,22,-1659
881246,1704,937,587,16292,3284,-2792,-1328,-166,-1835
881256,1704,927,583,17164,3808,-2384,-1296,-647,-1257
881266,1705,839,587,16980,3568,-2896,-1344,-1320,-333
881276,1701,939,583,16448,2812,-3524,-1296,-2036,101
881286,1703,940,581,16388,2784,-2584,-1328,-2865,381
881296,1703,917,583,16488,2464,-2248,-1312,-3257,431
881306,1705,951,579,16352,2524,-2244,-1280,-2872,-25
881316,1711,941,585,15920,2724,-2440,-1312,-2007,-543
881326,1703,937,585,15860,2524,-2728,-1264,-1284,-869
881336,1685,939,584,15672,2464,-3096,-1296,-1011,-903
881346,1703,939,585,15776,2512,-3148,-1280,-904,-658
881356,1702,933,585,16036,2988,-2564,-1312,-446,-487
881366,1704,937,583,16000,3428,-2540,-1280,435,-569
881376,1703,939,582,16100,3744,-3052,-1312,1283,-1077
881386,1703,939,581,16192,4140,-3428,-1296,1337,-1518
881396,1703,967,583,16400,4228,-3880,-1312,552,-1596
881406,1703,939,583,16276,4264,-3988,-1312,-537,-1242
881416,1702,941,583,16324,4132,-3472,-1264,-1168,-532
881426,1703,939,584,15908,4188,-2916,-1328,-917,155
881436,1703,939,583,15416,4288,-2592,-1264,-157,292
881446,1705,941,583,15544,4344,-2748,-1312,611,-256
881456,1703,941,583,15644,4600,-3080,-1344,855,-1387
881466,1702,939,584,16048,4588,-3344,-1328,478,-2309
881476,1702,941,585,16040,4632,-2924,-1296,-152,-2179
881486,1703,941,583,15976,4728,-2428,-1296,-267,-1198
881496,1701,984,585,15756,4808,-2156,-1296,100,-281
881506,1705,941,583,15280,4976,-2268,-1312,814,48
881516,1705,941,583,15360,5272,-2784,-1328,1586,-587
881526,1704,941,597,15648,5316,-3748,-1296,1624,-1970
881536,1701,939,575,15356,5028,-4016,-1312,1007,-2689
881546,1703,939,583,15420,4928,-3640,-1296,365,-2339
881556,1701,941,585,15452,5256,-2960,-1312,617,-1384
881566,1703,941,584,15008,4824,-3860,-1296,1334,-583
881576,1702,941,584,14748,5520,-3284,-1296,2170,-13
881586,1703,942,581,15352,6648,-2836,-1344,3540,-456
881596,1703,939,583,15104,6216,-4268,-1312,3525,-1446
881606,1703,941,582,14168,6940,-3396,-1312,2837,-1114
881616,1705,941,583,14216,8320,-2916,-1312,3934,-648
881626,1705,940,581,14672,8916,-4876,-1296,5701,-1669
881636,1703,941,583,15544,8940,-6028,-1312,5393,-2660
881646,1705,940,587,17028,9808,-5064,-1312,4803,-3335
881656,1701,941,585,18328,9328,-5912,-1312,4217,-3767
881666,1700,942,575,17912,9032,-6096,-1312,3050,-2569
881676,1701,910,582,17488,9624,-4748,-1296,2582,87
881686,1702,941,581,17320,9420,-4440,-1312,2543,2082
881696,1703,943,583,16960,8324,-4904,-1312,1257,2536
881706,1704,942,585,16244,6948,-3896,-1296,-778,2290
881716,1705,941,584,15740,6176,-2404,-1280,-1481,1241
881726,1703,943,584,15252,5852,-976,-1296,328,-300
881736,1703,942,583,15364,5956,-1516,-1296,3480,-2298
881746,1701,943,580,15736,5768,-2748,-1312,5733,-3889
881756,1703,941,580,16228,5828,-4100,-1296,5950,-4330
881766,1702,942,587,16760,6004,-4968,-1296,4840,-4010
881776,1703,941,587,17384,6484,-5084,-1312,3396,-3166
881786,1701,942,586,17684,6716,-4016,-1328,2324,-2165
881796,1703,943,585,16884,6580,-4464,-1280,1348,-900
881806,1703,943,586,15732,5840,-4856,-1296,-156,-71
881816,1701,943,595,15080,5292,-4424,-1328,-1714,246
881826,1703,942,586,14988,4804,-4748,-1312,-2678,-667
881836,1701,941,583,15184,3780,-4572,-1312,-2889,-2371
881846,1703,941,575,15872,2756,-4952,-1312,-3222,-3926
881856,1703,939,573,15532,2184,-5104,-1280,-3237,-4257
881866,1707,940,575,15328,2096,-4960,-1264,-2699,-2990
881876,1702,942,571,15692,1568,-5956,-1344,-2389,-1692
881886,1700,941,583,15464,932,-6528,-1312,-3347,-917
881896,1708,940,583,15192,504,-6012,-1312,-4547,-9
881906,1703,942,579,14912,-188,-5712,-1312,-5127,272
881916,1701,943,581,14740,-916,-5956,-1296,-5564,-174
881926,1703,942,581,14580,-1232,-5808,-1280,-5206,-1099
881936,1704,895,580,14784,-1328,-4940,-1280,-3707,-1541
881946,1704,932,573,15272,-660,-4424,-1296,-1799,-1356
881956,1704,943,575,15396,-160,-5516,-1312,-799,-897
881966,1703,943,581,15320,8,-6088,-1296,-1754,-263
881976,1703,942,589,15888,-380,-5768,-1328,-3933,-57
881986,1705,941,575,16052,-564,-5256,-1312,-5048,-169
881996,1702,927,573,16044,-704,-5120,-1328,-4827,-580
882006,1703,943,571,15548,-284,-4016,-1264,-3403,-378
882016,1702,942,585,15948,72,-4720,-1296,-2327,27
882026,1703,943,580,15812,-412,-6604,-1296,-3194,-180
882036,1703,941,591,15932,-756,-5832,-1312,-4684,-574
882046,1703,943,587,16376,-952,-4600,-1296,-4993,-725
882056,1695,941,581,16136,-952,-5572,-1296,-4308,-1199
882066,1690,943,585,16036,-72,-4876,-1296,-3066,-953
882076,1703,943,583,16132,48,-5100,-1296,-2302,50
882086,1689,943,579,16012,-516,-5856,-1280,-3316,724
882096,1703,948,569,15752,-1044,-5148,-1280,-4054,487
882106,1705,943,574,15560,-1788,-5328,-1280,-3880,-217
882116,1704,942,571,15784,-2072,-4560,-1312,-2996,-701
882126,1701,987,573,16016,-2340,-4472,-1328,-1853,-756
882136,1703,938,572,15876,-2664,-4744,-1312,-635,-644
882146,1701,947,581,15888,-2540,-4844,-1280,237,-575
882156,1677,947,573,15576,-2324,-5200,-1328,1144,-472
882166,1703,943,583,15588,-1732,-6476,-1312,1454,-701
882176,1705,947,587,15456,-768,-6528,-1296,1497,-1060
882186,1703,947,582,15708,-620,-6308,-1280,1426,-1072
882196,1703,947,583,16076,-288,-6284,-1312,670,-869
882206,1704,943,585,16144,188,-6228,-1296,31,-590
882216,1704,946,575,16248,196,-6464,-1296,-429,-605
882226,1702,947,589,16048,-56,-6080,-1328,-452,-585
882236,1703,947,597,16424,-304,-5084,-1312,-231,-313
882246,1700,946,587,16284,-676,-4696,-1312,-125,149
882256,1702,944,580,15888,-668,-5268,-1296,231,65
882266,1702,947,573,15908,220,-5096,-1296,1314,-209
882276,1703,995,573,16032,884,-5280,-1312,2533,-528
882286,1701,946,572,16232,1580,-5892,-1296,2241,-510
882296,1702,946,585,16412,1880,-5996,-1280,1203,-497
882306,1701,946,585,16416,1644,-5732,-1296,-457,-440
882316,1703,942,579,16048,1184,-6052,-1296,-2348,-56
882326,1703,947,583,15744,1000,-5740,-1312,-2987,-44
882336,1709,947,580,15616,812,-5120,-1328,-2332,-281
882346,1703,947,585,15896,280,-5376,-1296,-1685,-534
882356,1704,946,576,16084,224,-5292,-1296,-1433,-754
882366,1701,941,583,16232,532,-5540,-1296,-964,-695
882376,1701,948,574,16224,968,-5980,-1280,-560,-472
882386,1701,947,575,16064,940,-5648,-1280,-600,80
882396,1703,947,575,15856,1032,-5532,-1280,-1210,575
882406,1703,944,581,15496,360,-5376,-1312,-2070,505
882416,1705,947,573,15320,-468,-5500,-1296,-2845,5
882426,1708,937,569,15356,-780,-5348,-1280,-2731,-729
882436,1701,947,567,15736,-700,-6128,-1312,-1821,-1298
882446,1701,947,583,16008,-944,-6172,-1296,-1393,-1199
882456,1703,949,583,16332,-1468,-6212,-1280,-1768,-539
882466,1702,947,575,16292,-1628,-5300,-1280,-1868,256
882476,1703,948,581,16060,-1328,-5324,-1312,-1179,726
882486,1703,951,584,15896,-648,-5564,-1280,-152,581
882496,1703,946,581,15840,-264,-6100,-1312,409,287
882506,1701,943,587,16180,272,-6644,-1296,155,-148
882516,1701,947,587,16276,-300,-6976,-1264,-1088,-187
882526,1699,949,584,16256,-1060,-6948,-1280,-2857,243
882536,1703,945,575,16124,-1192,-6224,-1280,-3074,733
882546,1703,948,582,15916,-1276,-5944,-1296,-1596,1098
882556,1703,947,589,15684,-1368,-6780,-1296,-682,1148
882566,1703,947,583,15748,-788,-6628,-1296,-502,1167
882576,1704,946,587,15744,-172,-6688,-1296,-445,1163
882586,1703,947,589,15936,364,-6840,-1296,-876,1145
882596,1699,947,587,15980,364,-6616,-1296,-1647,1329
882606,1703,948,583,16072,96,-6216,-1264,-2354,1560
882616,1703,948,579,15828,-124,-6312,-1280,-2456,1664
882626,1699,947,573,15892,-692,-5624,-1264,-2096,1613
882636,1698,947,573,16088,-488,-5324,-1264,-983,1248
882646,1703,948,573,16264,572,-5740,-1296,537,1078
882656,1703,947,579,16416,996,-6012,-1264,804,1531
882666,1703,949,581,16420,960,-5656,-1280,-610,2393
882676,1703,949,581,15916,388,-5512,-1312,-2534,2779
882686,1701,948,582,15524,-32,-5064,-1312,-3666,2426
882696,1715,949,585,15460,-1048,-5180,-1280,-3608,1416
882706,1701,949,579,15848,-1672,-5140,-1296,-2504,571
882716,1701,947,583,16096,-1220,-5376,-1280,-496,711
882726,1701,947,581,16368,-776,-5968,-1280,1689,1361
882736,1699,949,571,16864,436,-5892,-1296,2990,1957
882746,1700,949,571,17000,1904,-5920,-1280,3173,2351
882756,1703,947,575,16396,2788,-6192,-1280,2265,2636
882766,1703,948,576,16256,2216,-6104,-1280,-184,2945
882776,1703,947,581,15900,1368,-5300,-1312,-3036,2826
882786,1701,948,580,15752,388,-4572,-1296,-4790,2306
882796,1702,947,587,15824,-552,-4164,-1264,-4744,1600
882806,1701,949,589,16512,-1248,-4500,-1296,-3800,1237
882816,1705,947,597,16904,-1576,-3920,-1312,-2064,1442
882826,1701,948,586,17016,-1032,-4376,-1280,374,1972
882836,1701,949,569,17080,592,-4820,-1296,2955,2647
882846,1703,947,573,16936,2464,-4812,-1264,4981,2990
882856,1701,949,583,16572,3404,-5968,-1280,4555,3141
882866,1701,949,595,16380,3296,-5840,-1264,1987,3560
882876,1705,948,593,16032,1600,-5192,-1280,-1874,4014
882886,1701,949,559,15480,-412,-5760,-1296,-5458,3661
882896,1685,949,599,15616,-1404,-5564,-1232,-6608,2937
882906,1703,947,620,15948,-2516,-4996,-1280,-5269,2209
882916,1703,949,601,16544,-3396,-5520,-1312,-2524,2413
882926,1703,948,595,17340,-3456,-5356,-1280,286,3060
882936,1704,951,581,17804,-2040,-4488,-1312,3567,3817
882946,1702,950,572,17980,448,-5108,-1296,5768,4003
882956,1703,949,588,17612,1860,-4372,-1280,6501,3848
882966,1703,951,572,17580,2008,-4776,-1248,4970,4228
882976,1703,951,551,17880,1940,-5208,-1296,1239,4226
882986,1701,950,555,17868,1596,-3940,-1248,-1521,3872
882996,1700,914,563,18036,1372,-3720,-1312,-2482,3143
883006,1700,951,567,18588,920,-3736,-1280,-2545,2506
883016,1702,955,567,19800,740,-3116,-1280,-1173,1528
883026,1703,951,552,21016,1064,-1784,-1296,1476,1046
883036,1703,949,552,21396,1964,-1836,-1264,4419,1609
883046,1703,951,547,21520,3856,-2948,-1264,6239,2238
883056,1701,951,613,21388,4696,-3472,-1264,5958,2648
883066,1700,951,567,21244,4872,-2948,-1280,4838,2824
883076,1701,951,559,20880,4824,-4392,-1296,2103,2988
883086,1701,951,553,20184,4264,-4636,-1264,-1231,3072
883096,1701,947,556,19224,3068,-4504,-1280,-3635,3349
883106,1699,947,562,18700,1444,-5088,-1264,-5263,3498
883116,1701,949,567,18248,-388,-5240,-1264,-6217,3390
883126,1701,948,568,18120,-2540,-5720,-1296,-7348,3240
883136,1699,947,565,18356,-3684,-6076,-1296,-7921,2846
883146,1695,949,567,19488,-3872,-5832,-1280,-7145,1912
883156,1708,958,581,19784,-3364,-3980,-1312,-4348,1563
883166,1693,933,584,20036,-2964,-3824,-1312,-1448,2414
883176,1695,890,575,19576,-1372,-3548,-1280,-372,4517
883186,1689,875,571,19796,604,-4972,-1264,-839,5159
883196,1706,953,585,17952,2892,-4020,-1312,-1485,4764
883206,1701,970,603,17288,4040,-3988,-1280,-1705,4197
883216,1705,959,597,17836,4832,-4460,-1296,-3933,2515
883226,1705,984,612,18540,3804,-5188,-1296,-8030,192
883236,1699,965,595,20292,3000,-4688,-1296,-14733,-1494
883246,1701,947,547,21096,7228,-1948,-1280,-17842,-1969
883256,1705,959,538,21792,10196,-4928,-1280,-16413,-2190
883266,1702,971,572,20572,9180,-10452,-1296,-15718,-2787
883276,1700,892,587,20948,5796,-11044,-1296,-19157,-2559
883286,1702,997,565,20840,3912,-3992,-1264,-23720,714
883296,1701,989,558,19296,2620,1884,-1264,-24255,6202
883306,1701,978,563,17584,2572,3452,-1280,-20203,10115
883316,1703,989,554,15868,3484,4012,-1264,-14032,11632
883326,1701,965,564,13792,5736,4220,-1296,-6061,11227
883336,1705,925,581,12936,7176,3188,-1280,-691,10015
883346,1705,943,593,12416,7636,1812,-1296,249,8465
883356,1711,952,595,12188,8652,1224,-1312,-2160,7174
883366,1705,950,591,11648,9248,2288,-1312,-5832,6337
883376,1703,949,587,10160,9088,3492,-1296,-8019,6023
883386,1701,939,588,8976,8660,5100,-1280,-7664,6372
883396,1699,931,591,7996,8000,6084,-1280,-5340,6804
883406,1700,947,586,7360,7568,6144,-1280,-2444,6711
883416,1703,951,575,6440,7416,5768,-1280,688,5834
883426,1701,955,580,5856,7372,5156,-1264,3142,4855
883436,1700,953,581,5496,8144,4520,-1280,4573,3484
883446,1701,954,584,5500,8516,4092,-1280,5014,1831
883456,1699,948,582,5800,9440,4052,-1280,4798,157
883466,1693,947,590,6184,9952,3260,-1312,3987,-1457
883476,1696,947,587,6752,10428,2952,-1264,2635,-3216
883486,1707,949,575,7652,10396,2604,-1312,1233,-4612
883496,1695,949,571,8188,10256,2648,-1280,-142,-4998
883506,1701,951,583,8640,9684,2728,-1296,-531,-5129
883516,1699,949,574,8684,9140,1740,-1280,-325,-5334
883526,1701,951,567,8796,8504,2296,-1296,-1053,-4999
883536,1701,950,571,8472,8320,2712,-1312,-1949,-3850
883546,1703,950,571,8372,8232,2496,-1312,-2869,-2859
883556,1704,950,564,8468,8808,2784,-1296,-2566,-2945
883566,1701,956,567,8584,9480,2504,-1296,-1592,-3773
883576,1703,955,572,8912,10064,1180,-1296,-1149,-4792
883586,1701,949,575,9468,10836,56,-1328,-2106,-5683
883596,1701,950,575,9604,10924,-376,-1280,-3951,-6070
883606,1701,943,585,10100,10716,-484,-1328,-6385,-5736
883616,1699,949,581,10396,10088,-196,-1328,-8728,-5233
883626,1701,949,581,10652,9072,292,-1312,-10390,-4804
883636,1700,949,581,11112,8224,1044,-1264,-11105,-4579
883646,1703,951,574,11196,7340,1656,-1280,-10990,-4846
883656,1704,951,584,11276,6668,2372,-1264,-9983,-5238
883666,1703,950,572,11516,6204,2716,-1296,-8303,-5879
883676,1703,951,570,11732,5804,2568,-1280,-6607,-6615
883686,1703,950,574,12020,5288,2164,-1312,-5706,-7178
883696,1703,949,580,12388,4748,2132,-1280,-5636,-7594
883706,1703,950,573,12704,4496,2808,-1280,-5152,-8073
883716,1702,949,579,12876,4136,2660,-1312,-3566,-8778
883726,1706,949,572,13932,4096,2368,-1280,-1316,-9870
883736,1703,955,567,14508,4256,1592,-1280,1719,-11108
883746,1701,951,582,14888,3896,456,-1280,3561,-11277
883756,1703,951,575,15824,3916,208,-1280,3830,-10522
883766,1703,949,574,16228,3552,124,-1296,3241,-9083
883776,1703,951,584,16356,3200,-320,-1312,2613,-7478
883786,1707,949,575,16124,2752,-536,-1296,2939,-6307
883796,1703,953,572,16396,2308,-376,-1296,3831,-5842
883806,1705,951,571,16804,1780,-768,-1312,4783,-5974
883816,1705,939,568,17388,1900,-1296,-1296,5540,-6491
883826,1704,951,571,18036,1928,-1992,-1296,5890,-6826
883836,1704,952,580,18832,2024,-3044,-1312,5638,-6813
883846,1703,951,580,19380,2228,-4012,-1312,4750,-6333
883856,1699,951,587,18812,1320,-4556,-1232,3608,-4485
883866,1701,949,574,18532,944,-3812,-1328,2316,-1791
883876,1725,955,567,18504,204,-3352,-1296,900,357
883886,1701,950,570,17988,-420,-4556,-1312,-623,522
883896,1701,951,573,16788,-948,-5368,-1280,-2078,-568
883906,1700,951,571,16272,-1156,-5128,-1280,-2850,-2101
883916,1710,950,566,16724,-1188,-3820,-1296,-3107,-3123
883926,1701,951,567,17216,-1264,-3188,-1296,-3547,-3273
883936,1702,950,575,17512,-1316,-2992,-1312,-4475,-2705
883946,1703,953,573,17100,-1396,-3248,-1280,-5755,-1861
883956,1703,952,572,16544,-1244,-3408,-1312,-7087,-1448
883966,1702,953,572,16240,-1596,-3944,-1280,-8618,-1686
883976,1703,951,574,16292,-1700,-3388,-1296,-9841,-2304
883986,1705,952,568,15944,-1736,-4196,-1280,-10235,-2847
883996,1699,953,575,15444,-2768,-7412,-1280,-11078,-2770
884006,1702,953,571,16016,-3676,-5980,-1328,-12331,-2174
884016,1693,951,563,16380,-4364,-3068,-1344,-12475,-1121
884026,1699,950,580,15848,-5300,-1428,-1328,-10814,334
884036,1701,952,582,15316,-5916,-3032,-1296,-9221,1323
884046,1703,951,581,14968,-6020,-3700,-1312,-8632,1459
884056,1695,949,584,14604,-5936,-3392,-1328,-8173,948
884066,1699,949,583,14948,-5840,-2988,-1264,-7178,155
884076,1692,963,600,15616,-6068,-4500,-1280,-6346,-1347
884086,1702,947,557,15744,-5660,-3068,-1328,-6461,-151
884096,1739,953,589,15548,-5672,-4632,-1280,-6144,1327
884106,1707,956,556,14428,-4668,-5836,-1280,-3928,-317
884116,1701,949,539,15364,-6544,-9468,-1296,-4531,-1131
884126,1685,949,568,17236,-8164,-84,-1280,-5374,-1431
884136,1695,949,562,17744,-9748,-2400,-1296,-6422,-718
884146,1709,953,567,17908,-9668,-5696,-1280,-7251,-351
884156,1704,893,569,18860,-8840,-2116,-1312,-6021,-376
884166,1693,950,604,19096,-10692,2476,-1280,-2712,-159
884176,1701,949,583,18680,-12816,3560,-1264,1937,-1374
884186,1707,951,547,17544,-15096,1316,-1296,5686,-2364
884196,1705,951,549,17428,-12620,-2056,-1328,10382,-3844
884206,1703,955,549,18632,-6536,-3372,-1280,15847,-5459
884216,1701,942,583,18976,-2600,-2628,-1296,20566,-6625
884226,1695,949,601,17992,-632,-5928,-1280,20645,-6019
884236,1695,952,601,17748,-636,-9820,-1296,12610,-3486
884246,1703,951,589,16204,-836,-11188,-1296,1371,-1647
884256,1703,958,575,14364,-676,-10340,-1312,-5521,-1388
884266,1703,954,588,14240,92,-9952,-1280,-6873,-2557
884276,1703,953,589,14624,-1608,-9196,-1280,-6144,-3490
884286,1703,953,588,14984,-3368,-8608,-1280,-5561,-3900
884296,1703,935,571,16228,-3888,-6160,-1296,-5007,-3123
884306,1701,953,579,17060,-2956,-4244,-1280,-4178,-1999
884316,1702,949,581,16408,-2880,-5084,-1312,-3464,-441
884326,1701,951,575,15924,-2636,-5384,-1296,-3751,-99
884336,1702,949,571,15280,-2800,-5076,-1312,-4155,-888
884346,1703,951,599,15028,-2348,-5012,-1296,-3997,-1979
884356,1701,951,569,15208,-1752,-6248,-1280,-3732,-2826
884366,1699,949,571,15808,-1064,-6928,-1280,-3956,-3107
884376,1701,943,580,15536,-856,-7916,-1296,-4656,-2653
884386,1699,951,602,15828,-548,-8064,-1264,-5544,-1452
884396,1677,951,571,15724,208,-7828,-1264,-6192,-436
884406,1701,948,573,15632,1176,-7124,-1264,-5870,-100
884416,1699,955,570,15860,1456,-6976,-1280,-5646,-287
884426,1703,964,575,16180,1740,-6696,-1296,-6618,-550
884436,1702,967,571,16268,1388,-6396,-1296,-8427,-552
884446,1701,952,571,16096,612,-6508,-1280,-10470,-161
884456,1702,953,571,15796,-196,-6472,-1296,-11350,-78
884466,1701,954,568,15968,-928,-6544,-1312,-10379,-399
884476,1700,952,569,15940,-1332,-6848,-1248,-9144,-407
884486,1701,949,573,15948,-2204,-6924,-1280,-8576,132
884496,1700,967,575,15656,-3052,-6540,-1312,-8980,952
884506,1703,952,581,15168,-3448,-6892,-1296,-9370,1200
884516,1705,951,587,14932,-3668,-6792,-1312,-9356,1285
884526,1700,949,591,15036,-3796,-6384,-1280,-8518,724
884536,1703,952,602,15412,-3596,-6152,-1296,-7109,124
884546,1703,951,586,15724,-3572,-5828,-1312,-5728,25
884556,1701,916,575,15812,-2928,-5604,-1264,-4599,595
884566,1701,952,568,15868,-2032,-5608,-1296,-3499,986
884576,1701,951,569,15652,-1172,-5908,-1280,-2857,1300
884586,1663,953,569,15496,-604,-6140,-1296,-2763,1281
884596,1699,952,572,15316,-344,-6264,-1296,-2865,861
884606,1699,952,575,15452,-380,-6496,-1312,-3397,634
884616,1701,951,573,15568,-328,-6360,-1280,-3701,655
884626,1699,953,572,15496,-504,-5656,-1296,-3195,774
884636,1696,952,571,15844,-392,-5628,-1264,-2290,913
884646,1699,953,569,15724,200,-5556,-1328,-1165,1019
884656,1699,943,568,15656,1044,-5620,-1280,-390,929
884666,1703,951,569,15896,1388,-5796,-1280,-573,835
884676,1701,953,575,15980,1812,-6088,-1280,-1643,886
884686,1705,953,573,15992,1968,-6060,-1280,-3196,968
884696,1703,879,580,16108,1584,-5980,-1296,-4834,1063
884706,1703,951,575,15956,908,-6032,-1280,-5962,857
884716,1707,922,568,15928,400,-5584,-1280,-5694,488
884726,1706,953,566,16144,692,-5424,-1296,-4340,548
884736,1705,952,558,16188,1248,-5872,-1312,-2886,803
884746,1704,951,566,16112,1772,-6044,-1312,-2644,1342
884756,1703,953,571,15888,2036,-5816,-1280,-3431,1894
884766,1702,953,573,15552,1976,-5996,-1312,-4767,1811
884776,1703,950,571,15484,1720,-5820,-1328,-5613,1023
884786,1701,951,571,16004,1716,-5292,-1312,-5526,531
884796,1705,953,566,16308,1596,-5272,-1312,-5325,639
884806,1703,953,566,16564,1548,-5108,-1312,-5392,1134
884816,1701,953,567,16428,1240,-4684,-1248,-5599,1609
884826,1703,953,571,16100,884,-4892,-1296,-5564,1522
884836,1703,952,569,16116,984,-4816,-1264,-4941,893
884846,1703,952,565,15980,1556,-4908,-1296,-3536,310
884856,1703,947,566,16236,2452,-5100,-1296,-2487,397
884866,1700,952,569,16296,3048,-5456,-1312,-3043,930
884876,1703,953,573,16236,2992,-6004,-1264,-4507,1149
884886,1701,953,573,16012,1936,-6960,-1296,-6824,860
884896,1704,952,565,15452,1416,-6036,-1280,-8141,890
884906,1703,953,573,15540,608,-6036,-1296,-7753,814
884916,1701,955,573,15672,-268,-6572,-1296,-6977,664
884926,1701,952,543,15848,-576,-6160,-1296,-6078,785
884936,1702,952,581,16000,-424,-5792,-1296,-4772,1278
884946,1703,953,583,15720,-632,-6388,-1280,-4045,1700
884956,1702,951,581,15508,-584,-5916,-1280,-4067,1900
884966,1701,953,583,15336,-316,-5408,-1280,-3787,1889
884976,1701,952,573,15280,124,-5848,-1280,-3382,1470
884986,1704,951,569,15964,1220,-5916,-1296,-2927,938
884996,1701,951,571,17096,1924,-6372,-1280,-2369,233
885006,1700,951,571,18260,2768,-5760,-1312,-2096,-13
885016,1693,953,580,18984,3184,-5572,-1264,-1901,428
885026,1695,952,585,19212,3796,-6060,-1280,-2266,1336
885036,1701,951,598,18996,3380,-6248,-1280,-3155,2367
885046,1700,951,570,18864,2616,-5468,-1280,-4496,3283
885056,1701,951,595,18300,1888,-5016,-1280,-5314,3717
885066,1699,953,602,17896,544,-4976,-1280,-5645,3521
885076,1703,947,581,17640,-600,-4940,-1296,-5274,2786
885086,1701,953,572,18248,-916,-4808,-1296,-4551,2146
885096,1700,950,569,18376,-1464,-4384,-1280,-2904,1839
885106,1701,952,567,18840,-1828,-4976,-1312,-1643,2104
885116,1689,947,566,18728,-2024,-4900,-1264,-501,2516
885126,1701,951,560,18788,-1752,-5304,-1312,490,2777
885136,1701,953,555,18740,-660,-5468,-1328,1558,2662
885146,1701,952,557,18848,400,-5140,-1296,2074,2452
885156,1699,953,559,18992,1568,-4980,-1248,1324,2496
885166,1701,953,553,18960,1860,-5584,-1264,-1004,2503
885176,1700,948,529,18568,-332,-8648,-1296,-6710,2486
885186,1695,952,531,18520,-2612,-7228,-1312,-14579,2942
885196,1705,951,540,19232,-2464,1452,-1264,-17093,5275
885206,1701,948,543,19408,-1340,1800,-1312,-14145,7140
885216,1701,951,558,19296,340,-1108,-1264,-9746,6490
885226,1701,954,566,18940,2956,-1408,-1264,-4653,4033
885236,1695,957,573,18736,5188,-1668,-1280,-1453,2562
885246,1693,952,587,18856,7388,-2620,-1280,-1139,2430
885256,1694,949,580,18648,9392,-4128,-1280,-2828,2197
885266,1695,952,571,18000,10716,-3896,-1312,-6225,2128
885276,1695,953,568,17272,11936,-2848,-1296,-9575,3033
885286,1695,954,565,15848,12492,-2684,-1312,-12048,4613
885296,1694,951,567,14420,12932,-2144,-1312,-13353,6704
885306,1691,951,571,12764,13392,-1412,-1296,-13565,8664
885316,1692,951,583,11040,14436,-332,-1344,-12401,10316
885326,1567,953,575,8712,15432,-1028,-1328,-10024,10886
885336,1741,960,585,6852,16204,-2884,-1296,-7971,9786
885346,1737,957,569,6172,17100,-2936,-1264,-7041,6770
885356,1765,952,571,8076,15964,-3600,-1296,-8377,2651
885366,1735,953,580,8828,14732,-6512,-1312,-13321,-2023
885376,1719,942,575,8812,11192,-3748,-1296,-17749,-3970
885386,1707,970,601,4548,8312,-2344,-1296,-20478,-4944
885396,1691,973,602,5116,4640,4172,-1280,-18893,-2464
885406,1689,975,568,5356,4052,8768,-1280,-11833,74
885416,1699,926,550,5216,3672,11212,-1312,-2567,2360
885426,1702,932,557,5796,4524,9968,-1296,7378,2262
885436,1703,941,559,6448,6524,5564,-1296,15225,-1565
885446,1704,948,565,8000,8360,712,-1280,19141,-7536
885456,1701,953,573,9572,10372,-3728,-1312,18126,-12265
885466,1699,953,587,10448,11244,-4288,-1312,11640,-12458
885476,1699,949,587,11736,11876,-1092,-1312,4244,-9135
885486,1700,952,573,11748,11408,780,-1296,29,-4563
885496,1700,955,570,11664,10296,1520,-1312,142,-1346
885506,1699,955,568,10980,9332,1916,-1312,1662,139
885516,1700,953,569,10512,8780,2032,-1312,3859,-121
885526,1703,952,564,10304,8736,1548,-1312,4317,-1460
885536,1705,951,558,10456,8812,496,-1296,3186,-3512
885546,1703,953,559,11104,9288,-1104,-1312,1324,-6151
885556,1704,953,573,11644,9268,-2480,-1312,-356,-8472
885566,1750,954,573,12636,8656,-2808,-1328,-2195,-9725
885576,1704,953,573,13900,7448,-2288,-1280,-4043,-9850
885586,1699,953,567,14552,5868,-1632,-1296,-5714,-9009
885596,1701,952,566,14708,4484,-1048,-1296,-6503,-8044
885606,1703,954,563,14656,3556,-1160,-1312,-6346,-7693
885616,1701,953,566,14684,2784,-2404,-1296,-5788,-7982
885626,1703,955,568,15324,2156,-2848,-1264,-5659,-8776
885636,1703,953,571,16264,1684,-2656,-1296,-5810,-9802
885646,1705,953,566,17632,1600,-1816,-1296,-5913,-10813
885656,1701,953,571,18200,1584,-1712,-1280,-5262,-11274
885666,1700,953,600,18028,912,-2284,-1344,-4651,-11129
885676,1703,951,567,17856,-228,-2592,-1312,-4853,-10380
885686,1703,949,564,17616,-1308,-3520,-1328,-5667,-9714
885696,1701,953,568,17700,-1868,-5116,-1296,-6490,-9826
885706,1702,953,563,17984,-2064,-7048,-1312,-7054,-10726
885716,1701,953,559,18652,-2140,-6384,-1312,-6374,-11079
885726,1703,952,557,19424,-2456,-4888,-1312,-4474,-9703
885736,1701,955,559,19644,-3128,-3452,-1280,-2626,-6531
885746,1695,954,568,19816,-3712,-1984,-1296,-1518,-2773
885756,1707,949,565,19188,-3832,204,-1296,-163,82
885766,1707,957,572,17448,-4868,-1440,-1328,1571,1022
885776,1701,955,572,16172,-5404,-2096,-1344,2185,410
885786,1702,953,582,16468,-4724,-608,-1280,3951,-1769
885796,1689,969,587,16828,-4528,-868,-1296,6206,-3478
885806,1702,953,582,17272,-3872,-3300,-1296,6807,-3616
885816,1700,953,583,18336,-2676,-3704,-1312,5485,-1874
885826,1701,953,594,18448,-2132,-2452,-1328,4171,887
885836,1694,1059,615,18388,-1880,-2320,-1312,3010,3419
885846,1701,953,597,16652,-2692,-3912,-1328,2194,3088
885856,1703,955,539,15056,-1392,-4140,-1296,1703,2252
885866,1704,955,559,12356,-1108,-7456,-1312,3657,507
885876,1689,940,530,15324,-4884,-7696,-1312,2642,-4466
885886,1687,953,538,15320,-6788,-5932,-1312,-4025,-7916
885896,1704,953,582,18148,-8772,-2012,-1328,-5180,-4280
885906,1707,957,543,18976,-7852,-8232,-1264,-5304,-620
885916,1723,953,595,19528,-8868,-4252,-1312,-4362,1343
885926,1695,951,587,18976,-13148,3188,-1312,-435,1475
885936,1703,950,567,18508,-16392,2612,-1312,3326,1797
885946,1709,953,537,17808,-14924,-152,-1344,7646,749
885956,1703,954,553,17896,-8076,-1220,-1296,15500,-1610
885966,1693,951,600,17536,-4848,-2492,-1344,20633,-4146
885976,1697,949,598,18940,-2456,-3684,-1312,19570,-4337
885986,1695,952,599,18916,-4368,-8464,-1328,8362,-2163
885996,1707,955,581,17148,-6748,-12964,-1312,-6471,-959
886006,1704,955,555,14688,-5776,-11376,-1328,-12215,-1747
886016,1701,956,553,14740,-4444,-9400,-1328,-6134,-1157
886026,1693,957,572,15100,-2956,-9452,-1296,4838,-854
886036,1699,955,586,15088,-3128,-8464,-1312,10938,-333
886046,1699,955,574,12028,-5068,-1972,-1328,8464,-916
886056,1701,953,571,15544,-4148,-3608,-1328,1983,2656
886066,1699,947,581,14796,-3456,-5180,-1328,-6823,2923
886076,1700,953,579,13768,-4980,-4120,-1344,-10562,853
886086,1701,951,570,13900,-5928,-1696,-1312,-8530,-1632
886096,1705,954,563,14224,-6284,-1176,-1312,-2613,-3181
886106,1703,952,557,15352,-4848,-2364,-1296,4579,-3805
886116,1704,949,548,16188,-2456,-5244,-1328,8920,-3327
886126,1702,953,549,16144,1316,-5756,-1312,10806,-2662
886136,1700,953,567,16108,3604,-7236,-1312,8862,-1356
886146,1695,951,568,16636,5076,-7536,-1344,4619,-90
886156,1695,953,579,15928,4856,-8480,-1280,-911,177
886166,1701,955,584,15260,3384,-8792,-1328,-6897,-477
886176,1701,955,567,14960,1784,-8084,-1312,-10773,-1661
886186,1701,955,564,15376,220,-6600,-1312,-11130,-2605
886196,1702,954,567,16012,-804,-5768,-1264,-8380,-2799
886206,1701,957,564,16820,-1524,-5372,-1344,-4334,-1890
886216,1699,955,564,17180,-1496,-5372,-1296,-1220,-151
886226,1700,954,568,16740,-1148,-6072,-1328,-362,1386
886236,1700,954,571,15984,-824,-6596,-1280,-1392,1822
886246,1700,953,572,15224,-812,-6892,-1296,-3226,1156
886256,1701,955,572,15004,-1200,-6892,-1328,-5098,102
886266,1702,955,627,15132,-1796,-6760,-1328,-6242,-522
886276,1693,953,571,15452,-2628,-6480,-1328,-6619,-496
886286,1704,951,568,15728,-2796,-5344,-1312,-5830,379
886296,1695,953,575,15684,-2248,-5248,-1312,-3827,1224
886306,1695,953,635,15352,-2424,-5268,-1312,-2201,1316
886316,1703,951,582,15492,-2248,-4896,-1312,-1719,652
886326,1700,953,565,15788,-1404,-4892,-1328,-1852,109
886336,1695,954,568,15724,4,-5424,-1280,-1482,45
886346,1694,953,583,15948,560,-6484,-1280,-1385,-12
886356,1700,951,573,15828,332,-6256,-1312,-2069,81
886366,1701,952,565,15920,92,-5616,-1312,-2898,515
886376,1701,955,565,15964,40,-5300,-1296,-3229,662
886386,1700,953,565,15856,584,-5320,-1312,-2355,374
886396,1700,955,567,16212,752,-5212,-1280,-1292,-170
886406,1701,953,566,16372,716,-4964,-1328,-1183,-150
886416,1703,955,563,16220,356,-4820,-1312,-2231,383
886426,1701,953,565,16028,452,-5092,-1312,-3283,749
886436,1701,953,569,15812,140,-5624,-1280,-3665,227
886446,1701,952,571,15832,-332,-5468,-1344,-3734,-430
886456,1704,951,573,15972,-644,-5436,-1328,-3467,-822
886466,1701,953,568,16204,-1060,-5936,-1296,-3621,-627
886476,1699,954,568,16276,-1088,-5624,-1296,-3997,168
886486,1703,954,567,15908,-1220,-6012,-1280,-4092,712
886496,1703,953,565,15652,-1324,-6200,-1312,-4101,677
886506,1701,952,569,15620,-1656,-6524,-1296,-4415,396
886516,1700,953,567,15480,-1836,-6840,-1328,-4291,88
886526,1702,954,569,15816,-1720,-6648,-1280,-3489,276
886536,1703,953,568,15936,-1368,-6348,-1296,-2409,586
886546,1699,951,564,16188,-728,-6172,-1312,-1668,1014
886556,1701,959,567,16152,-320,-5704,-1328,-1689,1204
886566,1695,952,566,16000,192,-5512,-1328,-2110,1388
886576,1701,955,569,16008,448,-5520,-1280,-2971,1300
886586,1701,953,573,15860,168,-5764,-1312,-3843,746
886596,1699,952,571,15980,-20,-5624,-1312,-4291,579
886606,1701,937,573,15972,-44,-5672,-1280,-3855,768
886616,1735,952,567,16064,364,-5844,-1296,-2694,990
886626,1702,955,567,16276,1020,-5428,-1312,-1681,1327
886636,1702,951,559,16064,1648,-5756,-1312,-1463,1580
886646,1703,954,558,15836,1716,-6176,-1328,-2229,1654
886656,1689,952,565,15572,1276,-6280,-1280,-3466,1616
886666,1702,953,565,15540,704,-6412,-1312,-4628,1256
886676,1695,954,569,15528,72,-6368,-1312,-4823,808
886686,1701,953,561,16156,-8,-6048,-1312,-4036,640
886696,1701,955,563,16392,136,-5700,-1296,-2634,1052
886706,1701,953,619,16656,704,-5980,-1296,-1718,1642
886716,1701,955,573,16572,1148,-6544,-1328,-1949,2123
886726,1703,984,569,16284,1320,-6896,-1312,-2817,2299
886736,1703,953,568,15984,1588,-7348,-1280,-3655,2192
886746,1701,953,569,15956,1268,-7768,-1296,-4383,1999
886756,1695,951,574,16152,920,-7464,-1328,-4819,2055
886766,1701,953,573,16296,428,-6904,-1296,-4862,2543
886776,1701,953,587,16464,-284,-7012,-1296,-5252,3103
886786,1701,953,580,16404,-848,-6256,-1312,-5494,3282
886796,1699,953,601,16492,-1136,-5736,-1296,-4863,3135
886806,1702,954,575,16788,-1000,-5840,-1296,-3806,2719
886816,1703,953,570,17512,-212,-4656,-1312,-2311,2418
886826,1696,952,567,18192,536,-5012,-1280,-865,2284
886836,1701,953,570,19120,1320,-4964,-1312,-221,2152
886846,1701,953,573,19424,1960,-2976,-1328,-35,3110
886856,1700,953,572,19212,2536,-2992,-1296,-446,4371
886866,1701,953,575,18340,2356,-4408,-1312,-2497,4577
886876,1703,952,572,17912,1808,-4044,-1312,-4985,4221
886886,1703,940,571,17268,960,-2964,-1280,-6476,3962
886896,1700,952,569,16764,428,-3292,-1280,-6761,3801
886906,1701,956,569,16592,-372,-3264,-1328,-6393,3618
886916,1700,954,570,16700,-900,-2624,-1280,-5695,3932
886926,1703,953,568,16508,-876,-2280,-1312,-4819,4320
886936,1699,953,567,16392,-580,-1840,-1312,-3961,4540
886946,1701,953,558,16080,-96,-1696,-1312,-3256,4524
886956,1700,953,561,16048,664,-1900,-1296,-2928,4146
886966,1700,953,558,16216,1640,-1908,-1280,-3157,3457
886976,1699,953,551,16856,2432,-2884,-1280,-4015,2366
886986,1701,953,547,17340,1868,-6008,-1328,-6223,857
886996,1701,954,551,17920,-524,-8452,-1312,-10580,-106
887006,1700,951,572,18956,-2352,-4304,-1296,-15678,2010
887016,1704,951,565,19472,-1336,2260,-1264,-16046,7108
887026,1704,953,559,18196,-316,1304,-1312,-11406,10896
887036,1701,952,557,17208,1508,-1940,-1296,-4788,10514
887046,1688,959,557,16384,4236,-2068,-1328,1234,7540
887056,1696,955,558,16584,6956,-1484,-1296,4170,5187
887066,1695,953,557,16948,10016,-1968,-1328,5065,3829
887076,1700,958,573,16840,12400,-3020,-1312,3026,3881
887086,1699,953,569,15956,13760,-3932,-1296,127,3883
887096,1701,952,563,14936,14752,-3628,-1296,-2391,3563
887106,1689,954,568,13548,15176,-3380,-1312,-3964,3233
887116,1705,955,567,12016,15020,-3612,-1280,-5223,3016
887126,1702,936,564,10812,14696,-3532,-1280,-6545,3223
887136,1695,955,566,9692,15060,-2604,-1280,-7501,3680
887146,1699,955,567,8756,15296,-1788,-1296,-7468,4000
887156,1701,954,563,7768,15692,-1936,-1280,-6655,3809
887166,1703,965,567,6108,15424,-3304,-1280,-5985,2871
887176,1699,955,603,4576,14628,-3932,-1280,-6938,1873
887186,1689,952,563,3652,15788,-3672,-1312,-8857,2648
887196,1703,951,563,3524,15324,-652,-1312,-9413,3023
887206,1701,953,564,4160,13520,-3648,-1296,-10582,443
887216,1692,955,565,4996,10824,-2268,-1296,-13637,-1565
887226,1701,952,584,5072,9216,-64,-1296,-18044,-903
887236,1709,952,569,4548,8956,5352,-1280,-18823,-1590
887246,1701,951,571,5108,7292,7960,-1296,-17125,-1253
887256,1701,951,605,6008,6976,9256,-1312,-10017,-1610
887266,1707,950,591,6804,5228,8396,-1312,-1501,-4898
887276,1709,952,581,6916,3128,6156,-1296,5753,-8993
887286,1703,950,565,7300,2648,6044,-1312,10267,-11510
887296,1701,951,550,8392,5572,6784,-1296,15104,-12134
887306,1700,950,543,10576,9476,5468,-1264,21169,-13453
887316,1700,953,553,13316,13520,1684,-1312,25358,-15195
887326,1701,954,567,14844,16976,-3500,-1312,24184,-14985
887336,1701,955,585,16184,18212,-8528,-1312,15961,-10706
887346,1701,955,594,17276,17416,-9952,-1280,1967,-3966
887356,1699,954,616,18092,15164,-7060,-1264,-11773,1879
887366,1703,1019,557,17132,12848,-3212,-1280,-17551,3855
887376,1701,985,551,14772,9432,-2212,-1312,-18012,3016
887386,1703,935,557,13752,6308,-948,-1280,-16494,801
887396,1704,953,542,15632,4368,892,-1312,-12703,-2440
887406,1707,951,574,16216,2188,1092,-1296,-8651,-6177
887416,1701,953,531,18724,1928,-660,-1296,-5896,-8910
887426,1693,954,551,21964,4740,-5296,-1296,-3002,-13369
887436,1699,957,519,22000,11300,-1184,-1296,2205,-14387
887446,1694,956,617,25280,12952,-3028,-1312,3530,-7657
887456,1699,953,572,21288,6668,-1232,-1296,-6137,2385
887466,1709,954,624,19308,3152,5184,-1296,-19408,16358
887476,1709,952,593,17884,-3276,5124,-1312,-24268,19780
887486,1701,953,565,16396,-5588,3436,-1280,-22310,14106
887496,1700,955,557,15608,-4464,4376,-1248,-11150,2608
887506,1701,954,522,12792,-2136,812,-1296,7485,-8619
887516,1703,957,529,12464,1040,940,-1328,25053,-17422
887526,1703,953,552,17720,5264,-7744,-1312,29633,-19697
887536,1695,955,581,24836,11864,-16444,-1312,20429,-15878
887546,1695,953,585,23976,6360,-5900,-1312,3197,-2404
887556,1700,957,572,21008,6576,-8656,-1280,-13397,8526
887566,1702,953,568,17380,3572,-7924,-1296,-20275,13041
887576,1703,952,569,15384,-152,-5440,-1312,-20484,11669
887586,1701,951,562,14408,-3700,132,-1312,-15074,7809
887596,1702,952,563,14552,-5104,2100,-1296,-5596,3134
887606,1708,957,557,15164,-5012,-120,-1280,2158,-1177
887616,1701,953,559,16880,-3136,-2076,-1264,6338,-3758
887626,1699,953,565,18252,-1540,-2220,-1296,7708,-4524
887636,1679,953,544,19024,-444,-2084,-1280,6620,-2243
887646,1705,953,572,19548,988,-2664,-1264,4268,1020
887656,1699,957,574,19372,1528,-3440,-1296,1401,3338
887666,1700,955,573,18708,1880,-3628,-1264,-534,3803
887676,1696,959,569,18720,1244,-4272,-1296,-1978,2571
887686,1701,953,565,19216,612,-3820,-1280,-3848,920
887696,1701,953,567,19768,-224,-3356,-1296,-5601,269
887706,1701,953,565,20820,-440,-3276,-1296,-6436,129
887716,1701,952,565,21436,-1192,-3292,-1280,-6013,204
887726,1703,952,565,21876,-1100,-2924,-1264,-4306,1078
887736,1699,953,568,21916,-692,-2980,-1280,-2164,2461
887746,1700,952,567,21868,228,-3104,-1312,-344,3909
887756,1698,950,569,21076,960,-3652,-1264,644,5135
887766,1701,953,571,20360,1284,-4024,-1280,800,5698
887776,1708,936,571,19856,1696,-3908,-1280,595,5976
887786,1700,954,563,19720,2164,-3636,-1280,882,6065
887796,1701,953,559,19812,2900,-2680,-1312,2021,6203
887806,1701,952,563,19888,3976,-2156,-1296,3939,5937
887816,1699,954,568,19732,4804,-1864,-1280,5802,5780
887826,1702,953,567,18944,4792,-2416,-1280,6799,5599
887836,1699,949,566,17868,4800,-3296,-1312,6950,4925
887846,1699,953,551,17932,5604,-2664,-1312,6802,3486
887856,1699,957,550,18232,6804,-2336,-1264,6840,2253
887866,1698,952,553,19556,8436,-1948,-1280,6771,1761
887876,1702,952,551,21200,10084,-2388,-1280,5570,1760
887886,1701,954,565,20672,10572,-4476,-1296,3486,1518
887896,1699,953,572,19528,9504,-5288,-1280,-762,1972
887906,1691,952,581,18548,8092,-3404,-1296,-5938,3749
887916,1699,953,568,17940,7520,-436,-1296,-8849,5388
887926,1693,955,557,18228,7292,1348,-1312,-7464,5530
887936,1696,954,549,18160,6872,1316,-1296,-4014,4258
887946,1699,953,553,17860,7024,620,-1296,-786,2642
887956,1704,953,566,17764,7204,684,-1312,391,1718
887966,1702,953,571,17088,7288,756,-1280,215,1564
887976,1685,948,579,15888,6912,1364,-1312,159,2108
887986,1693,953,570,15404,6652,3064,-1296,1237,2830
887996,1699,952,616,15124,6944,4032,-1264,4042,2741
888006,1720,954,557,14564,7176,3248,-1312,7425,1893
888016,1701,953,570,13960,7508,1440,-1280,9361,930
888026,1699,951,564,13556,8160,308,-1344,8837,302
888036,1699,959,565,12952,8588,180,-1280,7391,475
888046,1699,953,567,12396,8576,-336,-1264,6034,739
888056,1699,975,567,12084,8216,-176,-1280,4388,1140
888066,1704,951,564,11300,7896,756,-1312,3745,1991
888076,1703,954,566,10700,7544,1032,-1328,4133,2507
888086,1700,953,565,10052,7352,972,-1280,4710,2753
888096,1703,952,568,9204,7136,924,-1312,4998,2895
888106,1701,951,566,8764,7380,1192,-1248,5355,2821
888116,1700,950,565,8528,7644,1264,-1280,5747,2403
888126,1699,953,559,8204,7300,828,-1296,5575,1807
888136,1699,953,563,7788,6844,420,-1312,4300,1419
888146,1699,951,565,7676,6504,684,-1312,2857,794
888156,1724,953,567,7684,6112,836,-1312,2792,152
888166,1699,950,563,7728,6168,1108,-1296,3900,-364
888176,1701,952,572,7964,6732,1216,-1296,5348,-939
888186,1699,953,560,8152,7072,152,-1280,5552,-1084
888196,1699,953,566,8360,6464,-752,-1312,3290,-858
888206,1696,967,552,8744,6260,-572,-1264,-79,-449
888216,1701,953,568,9092,5352,144,-1280,-1626,-531
888226,1700,953,564,9828,5120,496,-1296,-792,-1502
888236,1701,953,559,10440,4592,172,-1296,1001,-2776
888246,1701,951,566,11112,4496,444,-1328,2279,-3361
888256,1700,952,567,12028,4496,532,-1296,2706,-3055
888266,1703,952,571,12536,4280,-64,-1296,2056,-2143
888276,1735,953,563,13228,5000,480,-1312,1961,-1579
888286,1688,950,565,13448,4872,-676,-1296,2787,-1485
888296,1701,952,569,13864,4348,-1424,-1296,3051,-1826
888306,1703,953,557,14524,3880,-692,-1296,2235,-1790
888316,1699,953,569,14512,3168,-876,-1296,1584,-1188
888326,1701,952,563,13928,3112,-576,-1312,1761,-512
888336,1701,1047,559,13256,3164,736,-1328,2974,482
888346,1701,953,565,12476,3536,140,-1328,5188,637
888356,1703,956,565,11504,3664,-1580,-1280,6769,-575
888366,1683,955,559,10548,4376,-1772,-1280,6871,-1725
888376,1699,955,565,9580,4988,-1028,-1312,5629,-1577
888386,1701,954,564,8472,5860,-952,-1296,4539,-678
888396,1701,955,567,7000,6212,-1340,-1328,3749,244
888406,1695,953,569,4872,6044,-1824,-1312,2991,708
888416,1715,968,556,5496,2144,-3944,-1312,2378,644
888426,1673,933,745,27260,-3016,-9584,-1296,-5829,-7021
888436,1691,958,499,32767,-11212,-32768,-1280,-23034,-32768
888446,1705,951,529,32767,-20680,6540,-1312,-32768,-32768
888456,1671,941,599,32767,-13856,8804,-1280,-21589,-14580
888466,1699,955,249,9676,-10232,14700,-1312,19983,24327
888476,1679,953,691,3516,-1624,8004,-1280,32767,32767
888486,1707,971,649,10428,11824,1740,-1296,32767,32767
888496,1739,965,664,10856,9744,-17288,-1296,32767,32767
888506,1692,955,535,11100,12336,-21708,-1328,10896,25987
888516,1683,951,529,6108,10564,-9656,-1312,-11009,-4259
888526,1688,936,529,5316,11076,-12888,-1296,-12404,-16843
888536,1708,949,589,12632,8440,-1944,-1296,-14304,-31086
888546,1741,950,601,14240,2540,5592,-1280,-17091,-30399
888556,1708,947,601,12080,8400,620,-1280,-28242,-32768
888566,1694,951,526,24096,-192,10188,-1312,-19673,-32768
888576,1691,951,551,26604,500,2032,-1312,-2525,-21652
888586,1694,953,557,26100,3332,244,-1296,12941,-5081
888596,1701,953,571,23364,6056,-828,-1280,18578,10598
888606,1701,955,589,19284,8380,-4420,-1264,15734,20426
888616,1701,955,572,14408,9176,-7692,-1296,9339,22034
888626,1699,955,574,10488,10040,-9004,-1312,4912,15631
888636,1699,955,569,11312,9928,-6308,-1296,2111,4720
888646,1703,953,568,12520,9012,-5044,-1296,-721,-5097
888656,1696,952,520,11232,6936,-5396,-1280,-3792,-14333
888666,1699,952,568,16456,4976,-5536,-1328,-8707,-18407
888676,1700,951,572,18240,5008,-5628,-1296,-10689,-16171
888686,1699,953,583,19884,4616,-1404,-1296,-6971,-10157
888696,1699,954,567,20808,4256,424,-1296,777,-2328
888706,1702,954,571,19316,3488,-2208,-1344,7182,3589
888716,1702,955,565,17336,4168,-3472,-1312,8625,6917
888726,1701,953,579,15388,5572,-4392,-1280,8385,6637
888736,1695,953,569,13976,6448,-5224,-1280,8159,2916
888746,1695,955,565,14344,7068,-5084,-1280,6993,-1620
888756,1695,952,569,14852,6868,-5264,-1312,4355,-4542
888766,1700,953,569,15536,6220,-5532,-1312,522,-5216
888776,1700,965,572,16152,4668,-5236,-1296,-1638,-4777
888786,1696,946,568,16580,3976,-4128,-1344,-703,-4101
888796,1696,951,567,16464,3252,-2860,-1328,1613,-2783
888806,1701,952,567,16168,3516,-2936,-1328,4593,-951
888816,1700,953,564,16060,4092,-3988,-1280,7000,-77
888826,1701,953,573,15768,4104,-5672,-1328,7356,-646
888836,1701,954,565,15900,4752,-5728,-1296,6080,-1381
888846,1695,942,567,15976,4636,-5436,-1312,4706,-1580
888856,1695,954,566,16460,4248,-4908,-1296,3586,-1584
888866,1699,953,568,16492,3408,-4628,-1296,2904,-1304
888876,1699,953,569,16172,2740,-3624,-1312,2476,-417
888886,1699,955,571,15940,2568,-2572,-1328,3193,731
888896,1699,953,566,16000,2312,-3736,-1280,3694,356
888906,1701,924,567,16208,2204,-3292,-1312,3110,-535
888916,1696,953,575,16324,1704,-3180,-1280,2284,-1041
888926,1699,951,575,16208,1056,-3032,-1280,1520,-1293
888936,1702,954,565,16044,1396,-2416,-1312,2061,-987
888946,1701,953,569,15512,1496,-3844,-1312,3280,-1116
888956,1700,951,560,15328,1688,-4812,-1312,3433,-1599
888966,1700,953,568,15684,2140,-4640,-1296,2679,-1636
888976,1699,970,568,15960,1816,-5512,-1312,950,-1358
888986,1700,953,571,15944,1380,-5376,-1312,-1183,-899
888996,1696,952,509,15948,1824,-4292,-1296,-1550,-311
889006,1700,953,565,16080,1472,-4948,-1296,-950,-269
889016,1701,952,568,15804,1124,-5432,-1296,-834,-383
889026,1675,953,568,15828,744,-5524,-1296,-1422,-174
889036,1699,952,564,16120,252,-4868,-1312,-1885,-35
889046,1691,954,568,16476,-692,-5008,-1296,-2122,-446
889056,1677,953,567,16588,-1044,-3776,-1328,-1652,-742
889066,1700,953,563,16572,-968,-4204,-1280,142,-442
889076,1725,954,559,16112,-696,-5496,-1280,1447,-186
889086,1699,955,563,16268,256,-5040,-1280,2208,153
889096,1698,953,569,16472,528,-4844,-1248,2079,300
889106,1700,953,569,16388,464,-5280,-1296,763,148
889116,1696,953,570,16196,320,-5248,-1280,-1180,60
889126,1700,951,568,16116,-96,-5164,-1312,-2684,90
889136,1703,951,569,16236,-524,-4672,-1296,-3182,46
889146,1693,952,569,15940,-632,-4052,-1280,-2323,314
889156,1700,954,567,15840,-840,-4620,-1280,-853,366
889166,1701,951,569,15740,-1084,-5572,-1312,-502,102
889176,1703,952,569,15908,-848,-4892,-1312,-459,-99
889186,1699,951,565,15948,-748,-4892,-1296,-173,34
889196,1695,953,564,15736,-192,-5240,-1312,529,106
889206,1701,955,563,15592,788,-5124,-1280,1597,172
889216,1702,955,564,15960,1924,-5320,-1328,2208,375
889226,1700,953,565,16316,2108,-5656,-1312,1414,366
889236,1700,953,567,16156,2204,-4760,-1296,161,480
889246,1699,949,567,16076,2460,-4408,-1296,-224,873
889256,1700,950,563,16160,2460,-5096,-1344,-299,616
889266,1701,902,558,16220,2192,-5204,-1296,-656,252
889276,1700,955,568,16304,1592,-4992,-1296,-1301,177
889286,1701,951,568,16696,1352,-4368,-1280,-1786,492
889296,1700,951,562,16504,1732,-4132,-1296,-1334,913
889306,1701,956,563,16136,2176,-5340,-1280,-24,1033
889316,1699,959,564,15924,2320,-6380,-1296,811,774
889326,1700,971,563,16224,2388,-6084,-1296,715,468
889336,1699,1012,565,16424,2892,-4524,-1280,391,808
889346,1699,960,570,16480,2512,-4700,-1280,-91,1404
889356,1701,965,567,16304,1720,-5196,-1312,-1358,1789
889366,1696,951,569,16276,1120,-4584,-1312,-2390,1581
889376,1701,959,568,16420,592,-3936,-1264,-2510,1190
889386,1701,933,565,16288,208,-3640,-1312,-2176,823
889396,1699,915,568,15996,208,-4296,-1280,-1487,1171
889406,1701,943,564,16136,12,-5024,-1296,-1265,1229
889416,1699,959,555,16060,352,-5760,-1312,-872,864
889426,1699,950,563,16356,1340,-5988,-1280,-211,715
889436,1699,952,571,16480,1272,-5300,-1280,-482,976
889446,1699,939,571,16740,772,-4388,-1280,-1459,1624
889456,1699,948,570,16476,-72,-4228,-1296,-2674,2064
889466,1699,951,567,16180,-268,-4964,-1296,-3499,1853
889476,1695,949,569,15996,-716,-4440,-1296,-3213,1428
889486,1699,953,565,15928,-960,-4380,-1312,-2041,1025
889496,1695,951,561,16000,-876,-4512,-1280,-659,644
889506,1703,953,563,16400,-592,-4848,-1264,162,679
889516,1701,953,567,16616,-520,-4840,-1328,335,909
889526,1690,948,572,16500,-344,-5072,-1248,-205,1185
889536,1700,953,573,16184,-328,-4564,-1296,-563,1343
889546,1699,949,573,16480,-436,-4304,-1280,-370,1140
889556,1700,958,569,16608,500,-5396,-1280,187,541
889566,1695,955,556,16980,1596,-4960,-1264,1279,492
889576,1699,955,567,17128,2512,-5076,-1280,2303,1007
889586,1699,967,564,16708,2808,-6212,-1296,2027,1564
889596,1699,951,555,16444,3184,-5292,-1296,1223,2324
889606,1703,949,563,16168,3188,-5060,-1280,571,2867
889616,1703,956,565,16124,4124,-5084,-1280,-220,2931
889626,1700,954,569,16132,3028,-5760,-1312,-1108,2150
889636,1699,953,567,16840,2516,-4756,-1296,-1896,1517
889646,1695,953,579,17344,2032,-3832,-1264,-1758,1261
889656,1700,953,563,17624,1152,-4176,-1312,-1265,1681
889666,1699,953,574,17320,788,-4664,-1248,-987,2554
889676,1699,951,567,17324,304,-4392,-1312,-980,3171
889686,1699,951,571,17144,92,-3204,-1280,-656,3487
889696,1701,951,583,16896,-376,-3568,-1296,95,3141
889706,1701,953,557,17080,-164,-4588,-1280,301,2396
889716,1695,951,555,17616,872,-4200,-1248,1111,1660
889726,1696,951,558,18196,1580,-3832,-1264,2432,1451
889736,1695,951,572,18588,1732,-4488,-1280,2434,1719
889746,1701,950,563,18860,1832,-5028,-1296,915,2514
889756,1702,949,568,19292,2004,-4008,-1280,-392,2566
889766,1699,951,568,19588,1552,-2548,-1312,-767,2929
889776,1699,953,572,19700,1320,-1844,-1296,-766,2986
889786,1699,951,549,19628,1088,-2224,-1296,-823,2686
889796,1699,953,557,19776,1416,-2848,-1296,-940,1920
889806,1703,953,560,20192,1632,-1172,-1280,-472,2017
889816,1694,951,553,20164,1316,-1320,-1264,65,2888
889826,1699,951,557,19640,1196,-3108,-1264,-220,3242
889836,1695,951,551,19416,1764,-3060,-1296,-513,2988
889846,1699,952,557,19096,1748,-2320,-1280,427,2821
889856,1695,951,595,18924,2232,-3552,-1312,493,2942
889866,1701,951,569,18464,2092,-4368,-1280,-1091,3480
889876,1701,953,555,18192,1448,-5072,-1280,-4293,4120
889886,1691,952,565,17904,560,-4328,-1264,-7320,4344
889896,1695,953,572,17840,-480,-4232,-1280,-8898,3967
889906,1695,955,569,17788,-1552,-4840,-1280,-9818,3311
889916,1692,960,572,18588,-2016,-5648,-1264,-10408,2355
889926,1695,963,571,19504,-2332,-6004,-1280,-10431,1288
889936,1699,979,569,19844,-2344,-5816,-1280,-9586,776
889946,1693,911,569,19628,-1864,-5168,-1280,-7911,1928
889956,1699,831,559,19620,-1748,-4884,-1312,-6441,3444
889966,1703,861,552,18360,-772,-4864,-1296,-5349,5109
889976,1695,894,558,17956,-60,-4376,-1264,-4700,5854
889986,1702,916,553,18272,1096,-2556,-1264,-4934,5169
889996,1695,941,556,17580,2488,-880,-1280,-5476,4018
890006,1693,1071,563,17968,3772,-4404,-1264,-7404,1813
890016,1695,1036,561,18040,4028,-6172,-1296,-11516,-1281
890026,1701,999,551,19156,3924,-4768,-1296,-16208,-3431
890036,1703,973,535,21664,5308,-3428,-1280,-18887,-4782
890046,1701,969,563,21536,5824,-4972,-1296,-19405,-5662
890056,1700,965,572,21564,4520,-5932,-1280,-20034,-5067
890066,1695,955,566,21940,2180,-2864,-1280,-21268,-2316
890076,1699,949,557,21288,-76,448,-1328,-21184,1459
890086,1696,954,575,19828,-640,1788,-1280,-18002,4643
890096,1699,949,552,18368,-200,1968,-1312,-13045,6384
890106,1701,957,547,17380,2388,1888,-1280,-6598,6197
890116,1699,958,557,16900,4684,1028,-1280,-2157,5293
890126,1702,958,572,17088,5524,592,-1312,-1609,4064
890136,1702,949,571,17560,6472,728,-1280,-3560,3221
890146,1700,950,569,16708,6824,1808,-1280,-6672,3521
890156,1699,949,568,15880,7184,3288,-1296,-8309,4407
890166,1701,951,556,15044,7396,4424,-1280,-7506,5155
890176,1699,955,557,13872,7044,4120,-1296,-4813,5542
890186,1691,954,570,12748,6612,3892,-1280,-1738,5670
890196,1692,952,565,12284,6036,3728,-1280,416,5631
890206,1693,951,569,12128,6516,3592,-1296,1778,5067
890216,1692,953,558,11748,8184,3280,-1296,3637,3913
890226,1695,953,558,11804,9148,2340,-1264,5423,3125
890236,1695,952,569,11832,9160,1100,-1296,5631,2626
890246,1694,951,567,12144,9452,1232,-1280,4055,2627
890256,1695,875,555,12016,9720,1992,-1328,3141,2489
890266,1694,952,559,11352,9096,1028,-1296,3415,2025
890276,1694,928,563,11056,8136,956,-1280,4318,2063
890286,1695,951,565,11360,7644,1368,-1296,4738,2842
890296,1659,953,547,11368,8164,1724,-1312,5580,3835
890306,1699,952,557,11532,9136,1460,-1296,6496,4924
890316,1701,953,557,11588,10576,852,-1296,6919,5309
890326,1700,953,558,11208,11004,-104,-1280,6918,4976
890336,1699,952,568,10872,11036,-676,-1312,5244,4737
890346,1695,951,566,10564,10836,60,-1280,2837,4480
890356,1705,951,563,10200,10604,1168,-1280,1362,4049
890366,1720,951,558,10240,9948,1684,-1232,1898,3277
890376,1700,955,559,10232,9180,1432,-1280,3041,2487
890386,1699,951,557,10376,9008,1500,-1280,4032,1677
890396,1695,953,559,10072,9200,1476,-1296,4758,1426
890406,1699,935,558,9960,9952,1168,-1312,5027,1743
890416,1701,952,555,9956,10904,652,-1280,5410,1924
890426,1699,952,560,9932,11140,-760,-1280,5247,1606
890436,1696,952,563,9916,11096,-1276,-1280,3924,910
890446,1699,957,557,9796,10660,-1000,-1296,2151,237
890456,1695,953,558,9892,10448,-76,-1280,1061,-378
890466,1699,952,555,9852,9916,-268,-1280,852,-812
890476,1699,953,555,9996,9744,-180,-1264,777,-1138
890486,1685,951,557,10032,9236,-472,-1264,427,-1166
890496,1695,952,559,10152,8896,80,-1264,35,-960
890506,1695,951,555,10256,8692,432,-1248,331,-1005
890516,1696,953,564,10508,8612,700,-1280,843,-1324
890526,1701,958,557,10348,8532,380,-1296,1413,-1934
890536,1699,952,537,10288,8456,136,-1296,1216,-2397
890546,1695,952,565,10320,8332,20,-1280,490,-2675
890556,1695,952,565,10352,8092,132,-1296,-342,-2678
890566,1701,953,563,10632,8180,420,-1280,-643,-3139
890576,1699,953,559,10884,8288,272,-1296,-106,-3699
890586,1700,943,563,11128,7940,-412,-1296,406,-4447
890596,1701,952,563,11728,7752,-460,-1248,-24,-4773
890606,1695,952,559,12244,7092,-324,-1296,-615,-4458
890616,1694,951,565,12928,6284,-416,-1296,-1138,-4319
890626,1699,952,585,13056,5744,384,-1296,-889,-4296
890636,1700,951,532,13256,5828,400,-1296,743,-4356
890646,1700,952,559,13512,5880,-300,-1312,2831,-4802
890656,1700,952,565,13720,6532,-620,-1280,4081,-4804
890666,1705,952,559,14340,7024,-1048,-1280,3974,-4363
890676,1725,953,556,14456,7020,-1316,-1312,2840,-3253
890686,1695,947,564,15020,7360,-676,-1280,2078,-2475
890696,1695,952,565,14924,6888,-884,-1312,2218,-2638
890706,1699,951,565,15004,6108,-1656,-1248,2182,-3306
890716,1699,952,570,15192,5460,-1632,-1264,1407,-3996
890726,1702,953,557,15604,4836,-1696,-1280,274,-4279
890736,1700,953,562,15864,4548,-1356,-1280,-242,-4169
890746,1702,953,559,16504,4340,-920,-1280,199,-4037
890756,1701,953,583,16720,3868,-1092,-1280,1531,-3838
890766,1701,952,531,17048,3648,-1276,-1296,2772,-3318
890776,1700,953,555,17108,4416,-716,-1296,4227,-2578
890786,1695,952,563,16596,4508,-1360,-1328,5185,-1358
890796,1699,952,563,16328,4736,-1824,-1264,4657,-345
890806,1699,953,559,16060,4652,-1864,-1312,3201,9
890816,1701,953,563,15956,4296,-2420,-1296,1784,-723
890826,1701,951,559,16228,3628,-2052,-1328,1022,-1991
890836,1687,953,561,16480,3148,-1752,-1280,861,-2772
890846,1699,953,558,16800,2732,-1628,-1296,1130,-2616
890856,1700,951,563,17036,2660,-1560,-1296,1654,-1842
890866,1699,952,558,17176,2628,-1240,-1296,2519,-989
