timestamp_ms,mmg1,mmg2,mmg3,accelX,accelY,accelZ,gyroX,gyroY,gyroZ
975375,1672,1003,462,15944,-4816,-936,-1344,693,-951
975385,1671,937,463,16116,-4864,-1544,-1376,728,-1529
975395,1671,936,461,16608,-4568,-1368,-1328,425,-1355
975405,1671,933,461,16480,-4656,-1800,-1328,290,-829
975415,1672,922,463,16432,-4356,-1872,-1360,-239,-646
975425,1671,910,461,16400,-4444,-1616,-1344,-646,-492
975435,1672,926,469,16212,-4572,-1532,-1328,-971,-226
975445,1671,925,467,16156,-4508,-1604,-1344,-1358,-340
975455,1671,943,463,16168,-4140,-1476,-1328,-1579,-552
975465,1671,933,463,16172,-4148,-1700,-1360,-1642,-494
975475,1670,955,465,16064,-4120,-1824,-1344,-1635,-308
975485,1673,926,462,16352,-4336,-1948,-1344,-2183,-543
975495,1669,926,459,16068,-3824,-1712,-1344,-2328,-221
975505,1671,917,463,16464,-4192,-2156,-1344,-2508,-656
975515,1670,923,466,16380,-4372,-1884,-1344,-2836,-553
975525,1663,932,462,16264,-4436,-1980,-1344,-3098,-324
975535,1672,911,461,16340,-4432,-1604,-1312,-3058,96
975545,1669,915,465,16204,-4392,-1368,-1328,-2673,742
975555,1670,903,461,16288,-4160,-1576,-1344,-2457,1013
975565,1673,917,481,15700,-3740,-1444,-1360,-2590,592
975575,1671,917,459,15920,-4100,-1508,-1328,-2811,-192
975585,1670,917,460,15616,-5604,-2340,-1344,-1057,-426
975595,1670,1031,461,16220,-3772,-1084,-1360,-641,-887
975605,1673,971,458,16020,-4740,-2044,-1360,-693,-651
975615,1675,931,458,16172,-4408,-2084,-1328,-1065,-390
975625,1669,917,462,16520,-4328,-2068,-1328,-1018,-245
975635,1671,919,460,16448,-4324,-1704,-1344,-121,176
975645,1671,917,459,15356,-5112,-1896,-1344,1757,-17
975655,1671,916,425,16348,-4912,-1916,-1312,1278,5
975665,1653,915,461,16412,-4564,-2632,-1344,88,855
975675,1671,971,461,16080,-3812,-3972,-1344,198,224
975685,1671,942,462,15144,-3624,-4152,-1312,-1409,-1398
975695,1673,995,459,15572,-3644,-2112,-1344,-4397,-3142
975705,1672,966,461,15732,-4544,-2544,-1344,-5575,-3883
975715,1671,947,461,16192,-4828,-2380,-1344,-4923,-3485
975725,1671,939,459,16836,-5224,-1944,-1344,-3475,-2209
975735,1673,913,461,17308,-5504,-1168,-1312,-1591,-267
975745,1671,884,459,16880,-5224,-1304,-1344,199,1364
975755,1672,889,458,16076,-4692,-2232,-1328,1405,1771
975765,1669,917,459,15692,-4248,-2732,-1312,1387,1219
975775,1672,928,460,15764,-3944,-2812,-1328,347,312
975785,1671,933,457,15904,-4012,-2900,-1328,-868,-368
975795,1670,949,460,16244,-4104,-2552,-1344,-1471,-445
975805,1671,943,461,16420,-4268,-2040,-1360,-1282,-53
975815,1622,935,455,16380,-4520,-2376,-1328,-841,474
975825,1674,936,460,16148,-4724,-2504,-1344,-672,644
975835,1670,938,459,16144,-4480,-2412,-1360,-486,551
975845,1672,943,460,16008,-4464,-2452,-1344,-389,410
975855,1673,973,461,16132,-4332,-2380,-1328,-329,423
975865,1671,1029,457,16176,-4064,-2296,-1328,-414,521
975875,1672,981,460,16104,-4256,-2096,-1344,-498,755
975885,1671,966,466,16180,-4784,-2308,-1344,-903,605
975895,1671,924,462,16120,-5212,-1600,-1312,-928,258
975905,1672,915,459,16052,-5124,-2368,-1344,-299,-10
975915,1671,933,473,16208,-4816,-2380,-1328,332,-199
975925,1672,942,461,16304,-4560,-2072,-1344,810,80
975935,1671,953,461,16440,-4364,-2324,-1344,758,592
975945,1650,959,462,16200,-4256,-2728,-1344,159,688
975955,1671,958,461,16044,-4056,-2488,-1312,-379,475
975965,1669,949,457,16112,-4068,-2356,-1344,-258,140
975975,1671,953,467,16240,-4068,-2552,-1344,-291,55
975985,1671,973,460,16208,-3960,-2216,-1312,-328,104
975995,1669,959,467,16344,-4016,-2368,-1328,-271,539
976005,1671,932,465,16176,-4264,-2060,-1344,-375,383
976015,1671,917,462,16184,-4384,-1836,-1328,-470,96
976025,1671,916,459,16112,-4120,-2384,-1344,-360,-145
976035,1669,915,459,16168,-3808,-2272,-1344,105,-190
976045,1670,921,473,16260,-3752,-2352,-1328,308,-49
976055,1672,928,459,16400,-3564,-2520,-1328,162,212
976065,1669,928,461,16272,-3156,-2504,-1360,-83,322
976075,1671,935,460,16208,-2944,-2412,-1328,-261,402
976085,1663,921,461,16060,-3252,-2336,-1312,-534,165
976095,1670,921,463,16148,-3624,-2216,-1360,-974,-141
976105,1671,907,458,16240,-3840,-2232,-1360,-979,-377
976115,1672,917,459,16372,-3824,-2168,-1312,-293,-483
976125,1671,938,493,16268,-3436,-2216,-1328,524,-300
976135,1671,952,459,16512,-3212,-2220,-1360,816,55
976145,1671,951,459,16552,-3028,-2380,-1328,517,156
976155,1671,910,460,16236,-2664,-2728,-1360,24,102
976165,1672,917,460,16216,-2932,-2960,-1376,-556,-83
976175,1669,936,458,16256,-3048,-2552,-1312,-894,-253
976185,1671,931,461,16256,-3248,-2564,-1344,-716,-421
976195,1663,937,457,16200,-3308,-2808,-1344,-377,-282
976205,1672,933,460,16424,-3464,-2592,-1328,-226,142
976215,1671,919,459,16584,-3124,-2688,-1344,-35,126
976225,1671,937,461,16492,-2972,-2840,-1344,71,116
976235,1670,934,459,16512,-3252,-3004,-1344,-154,174
976245,1670,951,461,16288,-3196,-2780,-1376,-466,482
976255,1671,927,495,16548,-3356,-2908,-1312,-376,398
976265,1673,927,461,16524,-3156,-2792,-1344,36,113
976275,1671,917,461,16548,-3112,-2736,-1344,382,200
976285,1659,927,457,16360,-2940,-2692,-1344,239,778
976295,1671,909,461,16640,-3132,-3056,-1344,-27,839
976305,1671,923,461,16432,-3192,-3128,-1376,-290,452
976315,1671,939,458,16448,-3492,-2656,-1344,-425,379
976325,1673,937,457,16600,-3412,-2180,-1344,-320,756
976335,1673,919,463,16596,-3584,-2596,-1360,-329,912
976345,1671,934,458,16412,-3536,-2560,-1344,-314,808
976355,1671,928,457,16640,-3396,-1936,-1328,101,745
976365,1673,928,460,16496,-2952,-2504,-1376,633,826
976375,1673,926,457,16460,-2756,-2884,-1344,603,1022
976385,1673,949,459,16276,-2456,-2564,-1328,93,1300
976395,1673,923,457,16152,-2268,-2276,-1328,-214,1410
976405,1673,917,457,16468,-2356,-2736,-1328,-564,908
976415,1671,935,457,16688,-2448,-2628,-1312,-1005,375
976425,1671,937,457,16984,-2064,-1984,-1344,-1066,536
976435,1671,921,458,17104,-2012,-1864,-1328,-875,1167
976445,1672,924,459,16744,-2060,-1864,-1360,-784,1701
976455,1673,917,458,16344,-1836,-2032,-1344,-801,1863
976465,1671,903,459,16312,-1908,-1944,-1360,-1062,1505
976475,1673,924,459,16088,-1900,-1948,-1344,-1505,1021
976485,1671,932,457,16296,-1860,-1720,-1360,-1686,750
976495,1672,919,460,16308,-2016,-1816,-1328,-1536,616
976505,1671,909,459,16476,-1952,-1704,-1312,-1096,525
976515,1671,917,457,16792,-1964,-1408,-1344,-527,627
976525,1671,933,459,16692,-1748,-1596,-1344,-28,850
976535,1671,949,459,16848,-1468,-1748,-1344,201,879
976545,1671,947,457,16616,-1248,-1820,-1328,151,771
976555,1671,941,459,16580,-1084,-1736,-1344,14,746
976565,1671,935,459,16412,-1216,-1804,-1344,-282,696
976575,1671,922,459,16224,-1420,-1708,-1328,-548,533
976585,1669,923,459,16152,-1680,-1880,-1344,-565,213
976595,1672,932,455,16212,-1836,-1616,-1344,-254,59
976605,1671,931,467,16364,-1872,-1720,-1344,151,29
976615,1671,971,458,16524,-1716,-2028,-1344,494,-39
976625,1671,981,460,16412,-1496,-2064,-1360,1006,-61
976635,1671,967,460,16504,-1036,-1732,-1328,1512,211
976645,1671,942,459,16404,-800,-2264,-1328,1401,557
976655,1671,927,458,16180,-640,-2500,-1360,801,459
976665,1669,924,459,16196,-652,-2664,-1344,19,1
976675,1671,927,459,16336,-1108,-2424,-1328,-804,-411
976685,1669,937,459,16536,-1524,-2020,-1328,-1314,-487
976695,1670,925,459,16556,-1808,-1788,-1344,-1255,-145
976705,1671,914,461,16528,-2128,-1956,-1328,-966,106
976715,1672,905,459,16456,-2460,-1836,-1360,-660,123
976725,1671,916,459,16636,-2588,-2068,-1360,-432,-219
976735,1671,953,458,16772,-2464,-1996,-1328,-53,-572
976745,1671,968,457,16968,-1956,-1976,-1312,518,-404
976755,1671,955,460,16948,-1524,-2076,-1328,816,220
976765,1671,921,459,16680,-1368,-2384,-1360,449,632
976775,1670,916,460,16476,-1348,-2632,-1312,-442,389
976785,1671,924,459,16328,-1404,-2468,-1360,-1189,107
976795,1671,922,457,16572,-1388,-2148,-1344,-1315,-271
976805,1671,927,458,16796,-1788,-2112,-1344,-1243,-366
976815,1669,921,459,16680,-1860,-2000,-1360,-1002,4
976825,1671,916,470,16628,-1800,-1848,-1344,-571,343
976835,1672,918,457,16492,-1884,-1980,-1344,-190,306
976845,1672,924,459,16504,-1928,-2176,-1376,0,-89
976855,1670,957,456,16576,-1600,-2192,-1344,77,-434
976865,1671,949,459,16740,-1328,-1956,-1344,177,-284
976875,1671,933,459,16820,-1316,-2184,-1312,32,61
976885,1670,937,459,16800,-1256,-2332,-1344,-279,200
976895,1671,924,445,16488,-1292,-2484,-1360,-560,-14
976905,1655,942,459,16604,-1376,-2224,-1344,-660,-217
976915,1671,942,457,16596,-1328,-2184,-1328,-624,-118
976925,1671,934,457,16604,-1352,-2312,-1328,-568,-3
976935,1671,939,458,16548,-1516,-2476,-1344,-602,-50
976945,1640,943,458,16632,-1644,-2336,-1328,-432,-129
976955,1671,957,458,16700,-1480,-2152,-1328,-177,-93
976965,1672,941,457,16696,-1308,-2184,-1328,72,41
976975,1671,935,458,16808,-1292,-2212,-1328,161,49
976985,1672,941,459,16712,-1288,-2356,-1344,-38,-36
976995,1671,952,441,16616,-1196,-2192,-1328,-270,-91
977005,1671,951,455,16596,-1172,-2260,-1360,-387,-149
977015,1672,943,457,16636,-1272,-2192,-1344,-373,-231
977025,1687,942,455,16604,-1268,-2300,-1344,-360,-124
977035,1669,936,457,16464,-1428,-2276,-1312,-326,-52
977045,1672,933,457,16440,-1468,-2312,-1360,-218,-102
977055,1671,939,457,16348,-1552,-2368,-1360,-60,-135
977065,1671,935,457,16520,-1432,-2416,-1312,73,-130
977075,1662,895,458,16588,-1440,-2496,-1344,127,-183
977085,1693,937,458,16644,-1532,-2572,-1344,101,-218
977095,1671,937,458,16608,-1564,-2428,-1344,125,-212
977105,1671,935,456,16648,-1560,-2528,-1328,164,-181
977115,1671,921,459,16696,-1604,-2728,-1344,144,-160
977125,1671,920,459,16828,-1748,-2748,-1344,-88,-178
977135,1669,941,457,16756,-1720,-2488,-1328,-244,-88
977145,1671,941,457,16832,-1636,-2356,-1328,-202,59
977155,1669,923,460,16576,-1776,-2812,-1328,-355,150
977165,1671,921,469,16460,-1992,-2564,-1344,-623,77
977175,1671,918,447,16476,-2176,-2360,-1344,-630,-246
977185,1671,919,456,16596,-2300,-2364,-1328,-290,-415
977195,1669,927,459,16788,-2180,-2280,-1328,149,-162
977205,1671,923,457,16916,-2008,-2388,-1312,357,41
977215,1671,910,459,16796,-1748,-2308,-1328,335,271
977225,1689,913,457,16576,-1560,-2508,-1360,220,317
977235,1670,920,459,16408,-1556,-2636,-1328,22,60
977245,1669,943,456,16544,-1548,-2728,-1328,-230,-212
977255,1671,941,457,16768,-1240,-2864,-1344,-298,-312
977265,1671,937,459,16836,-1196,-2612,-1344,-21,-118
977275,1669,941,458,16900,-988,-2604,-1344,259,212
977285,1679,933,459,16796,-880,-2812,-1328,366,393
977295,1671,935,457,16580,-696,-2616,-1328,223,339
977305,1669,939,457,16568,-532,-2304,-1344,-29,239
977315,1671,934,455,16540,-832,-2472,-1344,-454,84
977325,1671,928,455,16636,-1012,-2424,-1344,-754,-158
977335,1671,925,470,16732,-1216,-2056,-1376,-599,-342
977345,1671,923,454,16812,-1604,-2004,-1312,-186,-332
977355,1670,919,456,16712,-1708,-2248,-1312,55,-91
977365,1671,914,457,16624,-1524,-2420,-1312,295,160
977375,1669,908,457,16512,-1576,-2396,-1344,480,151
977385,1672,911,456,16360,-1360,-2500,-1312,341,15
977395,1703,909,459,16348,-1540,-2660,-1344,38,-253
977405,1672,917,458,16540,-1588,-2364,-1360,-49,-462
977415,1669,919,459,16644,-1584,-2472,-1296,185,-393
977425,1671,924,457,16672,-1700,-2524,-1360,512,-175
977435,1671,924,459,16616,-1480,-2636,-1344,675,24
977445,1672,925,457,16516,-1264,-2712,-1344,554,119
977455,1671,941,462,16564,-1220,-2576,-1360,228,46
977465,1673,933,456,16588,-1164,-2760,-1360,-174,-191
977475,1671,933,493,16712,-1140,-2780,-1360,-376,-355
977485,1669,923,457,16760,-1104,-2628,-1328,-241,-316
977495,1671,921,457,16808,-804,-2528,-1344,25,-128
977505,1671,940,457,16808,-732,-2648,-1328,-134,185
977515,1670,932,458,16536,-732,-2600,-1360,-703,278
977525,1671,925,456,16448,-1012,-2660,-1344,-1156,-36
977535,1669,925,456,16368,-1312,-2384,-1328,-1189,-441
977545,1671,931,456,16708,-1416,-2300,-1312,-839,-550
977555,1671,921,455,16712,-1440,-2148,-1328,-374,-232
977565,1671,924,456,16780,-1316,-2364,-1328,-43,162
977575,1671,931,457,16576,-1136,-2520,-1344,27,267
977585,1672,924,456,16400,-1036,-2724,-1344,-75,19
977595,1671,921,457,16392,-1056,-2708,-1344,-325,-237
977605,1655,928,457,16500,-1136,-2804,-1312,-556,-389
977615,1672,933,457,16628,-1232,-2764,-1344,-467,-371
977625,1671,951,457,16884,-1012,-2824,-1344,-116,-304
977635,1671,943,457,16900,-1040,-2716,-1312,149,-24
977645,1671,933,457,16812,-804,-2860,-1360,-17,179
977655,1671,925,457,16500,-736,-2960,-1376,-366,167
977665,1662,933,457,16592,-960,-2868,-1360,-749,-31
977675,1672,940,454,16584,-1072,-2612,-1344,-913,-163
977685,1671,928,461,16740,-1324,-2520,-1344,-779,-205
977695,1672,916,457,16644,-1200,-2588,-1360,-365,-147
977705,1669,927,457,16640,-1272,-2500,-1360,-129,35
977715,1671,917,455,16568,-1264,-2528,-1328,-57,184
977725,1670,917,455,16392,-1248,-2648,-1328,-104,86
977735,1671,1007,457,16308,-1288,-2696,-1376,-193,-233
977745,1671,923,457,16472,-1236,-2564,-1328,-236,-355
977755,1671,922,455,16648,-1348,-2656,-1328,-166,-321
977765,1671,928,456,16660,-1392,-2632,-1344,65,-247
977775,1671,928,455,16648,-1300,-2608,-1328,312,-173
977785,1671,921,456,16620,-1172,-2640,-1328,420,-142
977795,1671,927,455,16544,-1076,-2724,-1296,493,-221
977805,1671,956,458,16580,-940,-2852,-1328,359,-282
977815,1671,923,457,16652,-772,-2944,-1344,185,-308
977825,1663,935,455,16616,-956,-3048,-1312,56,-268
977835,1669,948,459,16628,-1104,-3100,-1344,3,-161
977845,1672,955,455,16536,-1216,-3208,-1344,-4,-136
977855,1653,947,455,16620,-1476,-3032,-1328,26,-177
977865,1670,949,459,16580,-1324,-3044,-1344,128,-161
977875,1671,933,457,16776,-1328,-3052,-1344,235,-115
977885,1671,935,459,16772,-1280,-2980,-1344,234,37
977895,1671,923,455,16492,-1244,-2984,-1344,212,74
977905,1671,915,456,16544,-1184,-3060,-1344,320,-53
977915,1671,925,455,16576,-1256,-2932,-1344,429,-140
977925,1670,928,456,16592,-1148,-3180,-1344,373,-102
977935,1669,932,437,16676,-1048,-3240,-1296,244,-48
977945,1671,925,457,16552,-1024,-3144,-1344,314,23
977955,1671,927,455,16484,-932,-3144,-1344,344,94
977965,1689,922,457,16624,-1012,-2984,-1344,240,64
977975,1672,931,459,16564,-1024,-3376,-1312,152,-68
977985,1688,935,457,16640,-992,-3096,-1328,81,-110
977995,1672,937,472,16660,-976,-2968,-1312,237,243
978005,1671,933,457,16656,-1024,-2804,-1344,392,8
978015,1669,924,458,16660,-964,-3000,-1344,410,135
978025,1671,936,454,16620,-760,-2784,-1376,343,170
978035,1671,921,455,16492,-840,-2944,-1328,251,121
978045,1670,924,455,16376,-824,-2992,-1344,113,-69
978055,1671,941,455,16564,-908,-2976,-1344,93,-120
978065,1671,937,455,16652,-1012,-2940,-1360,95,-45
978075,1671,939,455,16600,-948,-3076,-1344,65,103
978085,1671,937,456,16592,-892,-3008,-1328,-41,212
978095,1671,933,456,16588,-1000,-2972,-1328,13,207
978105,1663,925,457,16544,-992,-3080,-1344,-54,121
978115,1672,941,457,16516,-952,-3024,-1360,-175,-27
978125,1671,937,456,16576,-1020,-2824,-1328,-100,24
978135,1671,921,455,16696,-912,-2920,-1328,70,171
978145,1669,921,457,16664,-816,-3092,-1344,160,169
978155,1671,926,456,16644,-840,-2908,-1344,124,164
978165,1661,921,455,16540,-744,-3076,-1328,26,136
978175,1671,922,455,16488,-756,-3472,-1328,-114,12
978185,1671,928,455,16520,-936,-3136,-1312,-182,-36
978195,1670,932,454,16592,-1016,-2888,-1360,-185,55
978205,1669,931,456,16624,-1008,-3080,-1344,-68,141
978215,1671,931,457,16684,-1104,-2924,-1328,15,170
978225,1674,925,456,16560,-1148,-3016,-1328,-45,195
978235,1672,923,457,16548,-1172,-2940,-1344,-167,149
978245,1653,922,456,16488,-1248,-3096,-1360,-133,65
978255,1672,920,457,16560,-1048,-3024,-1360,6,42
978265,1671,922,457,16600,-1112,-3024,-1312,46,114
978275,1671,923,453,16620,-888,-3144,-1328,104,183
978285,1671,996,456,16624,-828,-3156,-1312,106,163
978295,1672,936,457,16624,-684,-2980,-1296,92,150
978305,1671,927,455,16560,-656,-3020,-1296,47,153
978315,1669,928,448,16608,-744,-3044,-1312,-99,175
978325,1671,934,455,16504,-804,-3108,-1344,-275,120
978335,1671,935,523,16524,-992,-3120,-1344,-371,68
978345,1671,935,453,16520,-1136,-3056,-1344,-307,65
978355,1671,933,455,16660,-1016,-2984,-1328,-124,85
978365,1671,927,457,16600,-1036,-2824,-1344,-33,145
978375,1670,931,487,16564,-1256,-3124,-1344,-86,180
978385,1671,934,447,16500,-1216,-3024,-1344,-128,157
978395,1671,926,456,16488,-1228,-2968,-1344,-27,-11
978405,1671,928,454,16576,-1276,-3012,-1344,17,-40
978415,1671,935,455,16556,-1152,-2960,-1344,-56,70
978425,1672,930,455,16624,-988,-3012,-1344,38,173
978435,1672,927,454,16564,-1124,-2920,-1328,63,194
978445,1671,925,455,16656,-1088,-2976,-1376,-6,162
978455,1651,933,454,16484,-1016,-3136,-1344,-55,191
978465,1671,926,455,16476,-1164,-3072,-1344,-71,180
978475,1655,923,453,16584,-1040,-3168,-1344,-121,145
978485,1671,932,454,16608,-1104,-2956,-1360,-127,106
978495,1671,936,456,16672,-1024,-2816,-1344,-145,161
978505,1670,932,455,16624,-1004,-2988,-1344,12,131
978515,1670,923,456,16532,-956,-3196,-1328,103,118
978525,1670,932,457,16524,-996,-3112,-1344,70,140
978535,1671,928,457,16580,-960,-2984,-1328,-52,199
978545,1661,925,456,16544,-1164,-3236,-1312,-73,140
978555,1672,927,454,16416,-1136,-3008,-1344,52,94
978565,1658,935,455,16568,-1048,-2948,-1328,139,111
978575,1671,934,456,16652,-976,-3136,-1296,105,236
978585,1663,933,456,16624,-956,-3020,-1360,36,274
978595,1670,937,455,16460,-976,-3140,-1344,101,246
978605,1672,937,453,16528,-960,-2952,-1328,195,170
978615,1671,939,453,16516,-900,-3168,-1328,206,102
978625,1669,935,453,16648,-808,-3264,-1296,63,178
978635,1657,979,453,16700,-864,-3032,-1344,-52,311
978645,1710,921,453,16556,-956,-3180,-1328,-112,296
978655,1670,925,454,16556,-1064,-3148,-1344,-214,246
978665,1671,919,468,16452,-1048,-2956,-1328,-234,215
978675,1671,913,457,16584,-1080,-2956,-1328,-123,159
978685,1671,922,457,16692,-1172,-3020,-1344,49,142
978695,1670,926,455,16620,-1188,-3044,-1328,70,251
978705,1671,927,455,16592,-1048,-2964,-1360,191,242
978715,1672,921,455,16564,-880,-3092,-1344,319,172
978725,1670,927,460,16640,-920,-2996,-1360,238,171
978735,1671,927,454,16640,-1000,-3248,-1344,-94,194
978745,1671,917,453,16516,-996,-3256,-1360,-192,180
978755,1671,923,455,16524,-1056,-3108,-1328,-4,102
978765,1671,924,456,16632,-952,-3096,-1312,27,167
978775,1671,938,456,16596,-1012,-2996,-1344,11,263
978785,1671,923,455,16648,-864,-2916,-1312,48,236
978795,1671,921,453,16624,-976,-2936,-1344,99,396
978805,1659,924,454,16536,-948,-3156,-1328,76,150
978815,1675,926,454,16508,-928,-2988,-1312,116,93
978825,1673,942,454,16596,-812,-3040,-1344,180,174
978835,1671,928,455,16652,-832,-3256,-1328,92,211
978845,1671,941,453,16564,-832,-3148,-1344,25,188
978855,1671,939,453,16588,-904,-3068,-1344,0,156
978865,1671,947,455,16504,-876,-3088,-1312,-86,158
978875,1671,931,443,16532,-972,-3108,-1312,-127,156
978885,1671,926,454,16648,-1016,-2956,-1360,-103,160
978895,1670,925,453,16520,-1020,-2904,-1312,-14,191
978905,1674,923,458,16668,-976,-2948,-1344,66,229
978915,1671,925,455,16552,-888,-2996,-1344,87,202
978925,1671,927,454,16460,-884,-3092,-1344,-27,214
978935,1663,937,455,16652,-844,-2952,-1360,-148,216
978945,1672,947,455,16572,-868,-2876,-1344,-90,193
978955,1670,925,454,16596,-928,-3084,-1312,-41,128
978965,1671,933,456,16564,-896,-3024,-1328,-46,145
978975,1671,927,455,16496,-800,-2844,-1312,-91,246
978985,1671,925,453,16512,-908,-3212,-1360,-102,234
978995,1671,931,454,16484,-892,-2964,-1328,-71,151
979005,1670,932,473,16516,-1032,-3112,-1328,-43,86
979015,1673,965,453,16628,-944,-3204,-1328,-73,136
979025,1672,931,453,16656,-900,-3064,-1360,-62,186
979035,1671,933,455,16568,-888,-3072,-1344,-69,253
979045,1645,926,453,16536,-876,-3016,-1312,-41,254
979055,1671,924,453,16416,-888,-3144,-1328,-37,213
979065,1673,933,454,16448,-888,-3164,-1328,-101,155
979075,1672,935,455,16672,-756,-3124,-1328,-128,138
979085,1671,942,454,16568,-708,-2928,-1376,19,239
979095,1671,941,455,16732,-776,-3100,-1328,13,325
979105,1671,935,455,16604,-768,-2964,-1360,-148,358
979115,1671,934,453,16420,-916,-2992,-1344,-256,270
979125,1655,935,436,16440,-1012,-2980,-1328,-226,118
979135,1670,932,453,16604,-944,-2948,-1312,-128,93
979145,1671,927,443,16608,-940,-3236,-1360,-76,200
979155,1660,924,453,16608,-992,-3076,-1328,-149,306
979165,1709,923,455,16540,-848,-3020,-1344,-145,336
979175,1670,923,453,16460,-992,-2996,-1344,-186,299
979185,1671,921,455,16616,-1104,-3124,-1344,-300,190
979195,1661,926,428,16504,-960,-3032,-1344,-348,101
979205,1663,923,447,16516,-1004,-2956,-1344,-189,111
979215,1682,923,453,16624,-1028,-2944,-1376,13,230
979225,1670,923,453,16484,-876,-3156,-1344,-42,324
979235,1643,920,456,16528,-836,-3240,-1344,-154,325
979245,1669,921,453,16580,-960,-3184,-1344,-322,215
979255,1670,928,453,16628,-1008,-3264,-1344,-549,54
979265,1671,935,447,16620,-1244,-3064,-1296,-542,58
979275,1671,931,453,16696,-1320,-3056,-1376,-241,119
979285,1672,923,453,16692,-1256,-3024,-1328,50,214
979295,1671,925,455,16532,-1056,-3072,-1360,175,325
979305,1671,933,454,16452,-1152,-3272,-1312,75,303
979315,1670,932,453,16564,-992,-3252,-1328,-67,232
979325,1669,925,448,16528,-916,-3192,-1360,-124,147
979335,1671,921,453,16604,-1032,-3056,-1328,-236,132
979345,1670,927,455,16680,-888,-2940,-1328,-246,190
979355,1671,932,453,16644,-1024,-2988,-1344,-134,260
979365,1671,934,451,16692,-1060,-3132,-1328,-7,246
979375,1671,933,453,16620,-1012,-2752,-1328,98,235
979385,1671,933,453,16552,-896,-3012,-1344,152,195
979395,1663,927,448,16552,-776,-3196,-1344,82,158
979405,1673,925,453,16596,-984,-3040,-1344,-30,173
979415,1671,925,452,16508,-1036,-3044,-1328,-67,213
979425,1671,933,453,16532,-972,-3044,-1360,10,211
979435,1672,927,453,16632,-920,-3076,-1344,83,244
979445,1671,924,453,16508,-1008,-2984,-1344,-3,300
979455,1671,931,454,16508,-1012,-3036,-1312,-86,291
979465,1671,931,453,16544,-1032,-2960,-1344,-17,247
979475,1670,927,443,16644,-928,-2960,-1312,124,197
979485,1671,927,455,16516,-928,-2936,-1344,173,257
979495,1669,933,453,16576,-940,-3212,-1344,95,259
979505,1671,937,455,16576,-876,-3096,-1360,89,292
979515,1671,923,454,16504,-936,-3088,-1344,19,245
979525,1670,931,453,16600,-960,-3120,-1344,-104,135
979535,1711,936,452,16612,-964,-3108,-1344,-183,138
979545,1659,927,447,16600,-1100,-3216,-1344,-129,214
979555,1671,927,447,16680,-1036,-3028,-1360,-37,324
979565,1669,927,454,16568,-1100,-2864,-1344,15,346
979575,1671,927,453,16592,-1128,-3120,-1344,2,292
979585,1671,919,447,16480,-1060,-3128,-1360,-39,193
979595,1671,937,453,16576,-1036,-3120,-1360,-19,133
979605,1671,937,453,16584,-1012,-3160,-1328,-77,156
979615,1671,934,453,16588,-960,-3092,-1344,-110,395
979625,1671,935,453,16540,-936,-3020,-1312,-145,348
979635,1670,927,453,16532,-1024,-2960,-1296,-98,299
979645,1671,927,453,16636,-996,-3064,-1328,-68,238
979655,1671,927,454,16632,-960,-3040,-1360,-42,226
979665,1669,924,455,16616,-956,-3108,-1328,24,264
979675,1671,924,452,16612,-1012,-3152,-1344,30,301
979685,1671,925,453,16576,-956,-3024,-1328,-58,330
979695,1671,923,455,16460,-1028,-3048,-1360,-171,313
979705,1671,923,455,16600,-1052,-2964,-1344,-166,216
979715,1670,923,447,16612,-1040,-2968,-1296,-161,198
979725,1671,924,447,16576,-1160,-2804,-1328,-118,236
979735,1669,925,452,16516,-1160,-2984,-1328,-72,301
979745,1671,924,447,16628,-1032,-3028,-1328,-7,332
979755,1669,923,453,16580,-1056,-3116,-1344,-71,313
979765,1671,922,452,16500,-952,-2928,-1360,-128,252
979775,1670,926,500,16564,-904,-3068,-1328,-131,179
979785,1671,927,453,16500,-1036,-3100,-1344,-100,194
979795,1674,932,441,16696,-880,-3072,-1344,-68,247
979805,1687,933,447,16544,-968,-3068,-1344,-109,277
979815,1671,937,453,16556,-1040,-3024,-1360,-168,319
979825,1671,927,447,16580,-1004,-3020,-1328,-172,238
979835,1663,927,448,16548,-1120,-2936,-1312,-197,190
979845,1661,925,447,16476,-1140,-2952,-1344,-189,173
979855,1669,927,448,16500,-1072,-3060,-1344,-50,227
979865,1670,950,447,16596,-1040,-3072,-1344,-11,249
979875,1669,925,448,16544,-956,-2976,-1360,15,293
979885,1671,933,447,16512,-936,-3036,-1344,-80,217
979895,1671,928,452,16540,-920,-3088,-1312,-152,188
979905,1670,927,458,16588,-1068,-3040,-1328,-181,191
979915,1671,927,453,16624,-1048,-3108,-1312,-157,187
979925,1671,931,452,16616,-1140,-2908,-1360,-158,266
979935,1669,926,453,16656,-1184,-2960,-1344,-66,284
979945,1672,931,454,16548,-1056,-3036,-1344,-113,290
979955,1671,926,485,16528,-1128,-2872,-1328,-160,268
979965,1669,927,447,16596,-1060,-2920,-1360,-173,198
979975,1670,927,448,16580,-1028,-2896,-1328,-150,217
979985,1671,925,447,16612,-996,-2952,-1328,-130,238
979995,1670,904,452,16620,-1016,-3068,-1344,-92,246
980005,1670,925,452,16564,-988,-2928,-1296,-41,239
980015,1671,927,447,16648,-928,-2908,-1360,-56,245
980025,1671,931,447,16564,-908,-2944,-1344,-106,282
980035,1669,924,453,16424,-912,-3092,-1360,-107,201
980045,1670,932,445,16652,-972,-3192,-1360,-167,141
980055,1669,931,445,16592,-1192,-3000,-1360,-220,194
980065,1669,932,447,16608,-1240,-2896,-1360,-179,243
980075,1669,931,447,16528,-1256,-3000,-1344,-102,279
980085,1673,928,447,16468,-1180,-2996,-1328,-52,283
980095,1670,925,447,16508,-1236,-3092,-1328,-75,245
980105,1670,927,453,16544,-1248,-3028,-1344,-165,177
980115,1670,935,447,16532,-1324,-2856,-1328,-122,178
980125,1669,939,487,16568,-1184,-2852,-1376,-18,235
980135,1659,935,447,16596,-1192,-2928,-1344,-11,336
980145,1671,933,452,16464,-1092,-2972,-1360,-110,384
980155,1671,927,447,16424,-1196,-2948,-1344,-205,320
980165,1671,924,459,16540,-1268,-3220,-1312,-177,210
980175,1635,925,453,16536,-1268,-2968,-1376,-70,143
980185,1671,927,447,16732,-1268,-3024,-1344,87,204
980195,1671,919,447,16616,-1072,-3276,-1328,176,380
980205,1669,925,447,16584,-1084,-3088,-1344,105,433
980215,1656,915,447,16428,-904,-3068,-1376,-78,406
980225,1671,909,447,16476,-1108,-3132,-1360,-264,265
980235,1669,923,452,16520,-1148,-3044,-1312,-340,160
980245,1671,924,447,16544,-1192,-2872,-1328,-221,178
980255,1637,925,443,16692,-1244,-2796,-1312,-7,315
980265,1668,924,446,16536,-1092,-2920,-1344,103,449
980275,1670,917,447,16572,-844,-2888,-1328,62,498
980285,1663,922,447,16508,-1000,-3152,-1360,-438,294
980295,1671,907,447,16456,-1032,-3224,-1328,-740,62
980305,1671,950,453,16568,-1136,-3004,-1328,-606,-59
980315,1671,920,453,16732,-1224,-3084,-1344,-214,141
980325,1669,925,447,16680,-1104,-2920,-1360,24,453
980335,1669,927,444,16608,-956,-2936,-1360,101,656
980345,1669,927,453,16416,-1016,-3080,-1344,-237,569
980355,1670,932,452,16404,-1024,-3112,-1328,-615,247
980365,1670,938,448,16480,-1136,-3076,-1328,-602,15
980375,1671,927,447,16624,-896,-2576,-1328,-438,258
980385,1669,920,452,16672,-712,-2728,-1328,-528,679
980395,1661,913,451,16580,-724,-2800,-1344,-1054,754
980405,1669,928,447,16356,-1144,-2868,-1344,-1578,500
980415,1672,927,445,16448,-1440,-2612,-1344,-1386,16
980425,1670,932,447,16532,-1512,-2616,-1344,-701,-124
980435,1671,918,446,16788,-1328,-2848,-1344,234,25
980445,1669,931,447,16836,-776,-3380,-1344,762,420
980455,1670,931,445,16728,-88,-3756,-1344,733,902
980465,1669,935,447,16464,40,-3844,-1328,21,1039
980475,1671,931,445,16344,-164,-3304,-1344,-1094,975
980485,1670,917,447,16236,-648,-3320,-1344,-1940,603
980495,1669,917,446,16480,-1420,-3020,-1344,-2089,77
980505,1671,910,445,16692,-1720,-2628,-1344,-1186,67
980515,1671,877,452,17072,-1616,-2572,-1328,4,594
980525,1670,884,447,16768,-1460,-3140,-1344,792,1168
980535,1663,925,447,16576,-1360,-3032,-1344,734,1482
980545,1670,940,445,16408,-1104,-3280,-1360,387,1221
980555,1671,910,447,16376,-1208,-3916,-1328,-214,684
980565,1671,927,447,16620,-1464,-3988,-1360,-718,323
980575,1669,938,453,16860,-1708,-3604,-1344,-708,611
980585,1670,943,452,16956,-2052,-3472,-1328,-289,1343
980595,1671,939,452,16760,-2284,-3140,-1392,141,1849
980605,1663,938,453,16508,-2288,-3196,-1328,426,1756
980615,1669,954,444,16604,-2240,-3116,-1312,364,1488
980625,1673,965,446,16604,-2384,-2880,-1360,287,1285
980635,1669,941,447,16824,-2448,-2852,-1344,419,1251
980645,1672,909,448,16900,-2564,-2764,-1360,864,1340
980655,1671,921,448,16788,-2560,-3180,-1328,1579,1544
980665,1671,917,447,16812,-2380,-3904,-1344,2064,1568
980675,1671,926,455,16776,-1944,-4120,-1344,2518,1568
980685,1669,919,454,16856,-1516,-4808,-1344,2726,1819
980695,1671,915,456,16720,-1048,-5224,-1344,2418,2178
980705,1669,919,454,16736,-784,-5232,-1328,1838,2611
980715,1651,934,453,16872,-432,-4840,-1344,1192,3102
980725,1669,904,453,16868,-740,-4488,-1344,382,3500
980735,1671,981,446,16848,-1332,-3604,-1328,-726,3757
980745,1670,871,443,16860,-1808,-2852,-1344,-1406,3823
980755,1673,902,457,17024,-2668,-2152,-1328,-2353,3618
980765,1671,910,453,16824,-3668,-1316,-1344,-2551,3679
980775,1671,875,445,16784,-4412,-568,-1376,-1608,3711
980785,1670,896,455,16880,-4616,-1016,-1360,-872,3498
980795,1669,857,454,16820,-4544,-1036,-1328,-67,3120
980805,1674,878,451,16784,-3948,-828,-1328,923,2990
980815,1671,875,445,16788,-3288,-1216,-1360,1695,3522
980825,1671,873,447,16784,-2132,-1664,-1344,1818,3710
980835,1671,889,446,16572,-1300,-2304,-1328,1160,3664
980845,1671,919,448,16560,-840,-2360,-1360,-171,3516
980855,1669,939,445,16700,-456,-2076,-1376,-1369,3330
980865,1669,955,447,16780,-312,-2092,-1312,-2414,3330
980875,1671,983,453,16936,-616,-2264,-1344,-3295,3336
980885,1672,997,448,17180,-1252,-2292,-1344,-4023,3237
980895,1671,1000,453,17000,-2084,-2188,-1392,-4427,3437
980905,1671,975,446,17044,-2608,-1188,-1344,-4161,3950
980915,1671,937,439,17108,-2820,-540,-1344,-2802,4360
980925,1671,936,436,17092,-2004,432,-1360,-429,4276
980935,1670,911,435,17468,-832,136,-1344,2078,3837
980945,1669,982,445,17844,-4,-1272,-1360,3025,3244
980955,1671,915,447,18692,552,-2148,-1344,2119,2617
980965,1671,919,453,19048,592,-872,-1312,1092,2649
980975,1669,1055,455,19352,532,296,-1328,182,4126
980985,1663,1017,455,18960,428,-84,-1360,588,5377
980995,1671,959,453,18200,-108,-1228,-1328,1695,5302
981005,1671,921,441,17652,-196,-1368,-1328,2760,4886
981015,1669,924,437,18016,104,-748,-1344,2933,4708
981025,1669,947,439,17444,468,-984,-1328,3088,4606
981035,1669,927,439,17464,924,-704,-1328,3666,4480
981045,1669,923,443,17276,1380,-408,-1344,4091,4594
981055,1671,932,445,17480,1236,-1540,-1328,3993,4026
981065,1663,952,439,17328,976,-2432,-1328,3704,2685
981075,1669,951,443,17404,1060,-1452,-1328,3855,2454
981085,1671,939,445,17740,1172,-856,-1328,4265,3542
981095,1669,973,445,17744,1104,-792,-1344,4486,4430
981105,1663,951,440,17680,1196,-892,-1328,4253,4824
981115,1670,959,447,17856,904,-1740,-1360,3599,3877
981125,1669,926,457,17564,324,-1828,-1344,3173,2723
981135,1670,959,445,18112,92,-940,-1328,3281,2494
981145,1669,1043,448,18176,-68,-668,-1344,4082,3184
981155,1663,1019,453,19704,-352,36,-1328,4252,4203
981165,1671,827,445,19848,148,796,-1328,5207,4975
981175,1679,787,455,18724,128,-44,-1344,8778,4634
981185,1681,877,445,17156,-180,-1628,-1344,13294,3445
981195,1659,877,442,16284,1480,-84,-1312,16461,3395
981205,1661,841,434,16516,4184,108,-1344,17804,3758
981215,1659,863,431,16524,7008,-1172,-1328,18375,2769
981225,1661,927,441,16768,9596,-2924,-1312,17242,1261
981235,1677,943,441,17160,11248,-4932,-1344,12971,-494
981245,1653,917,455,17408,10524,-6852,-1328,4898,-896
981255,1663,906,467,18904,9648,-5756,-1360,-4426,-684
981265,1671,954,457,19100,7368,-2624,-1360,-8811,-942
981275,1663,937,440,19220,5732,-108,-1344,-8308,-766
981285,1663,999,437,19320,4324,600,-1344,-6582,218
981295,1669,946,435,19868,4228,16,-1328,-4181,1087
981305,1671,935,445,20016,4116,-744,-1328,-3292,1754
981315,1671,931,448,20096,3692,-92,-1328,-3951,2324
981325,1645,931,440,20148,3732,948,-1328,-3990,2202
981335,1670,927,440,19656,3116,1388,-1312,-2294,1495
981345,1669,927,439,19580,2524,1864,-1360,-201,833
981355,1671,926,441,19800,2872,2824,-1360,1649,694
981365,1661,927,443,19600,3140,2660,-1344,3884,668
981375,1663,925,439,19828,3948,2316,-1328,6218,358
981385,1677,927,431,19576,4272,1052,-1328,8109,-49
981395,1672,925,443,19120,4716,516,-1328,8815,-150
981405,1663,925,455,18732,5420,672,-1360,8778,117
981415,1661,925,467,18608,5832,484,-1312,9055,74
981425,1663,926,444,18708,6136,368,-1328,9568,-242
981435,1669,923,453,19336,7400,924,-1328,9577,216
981445,1669,923,445,18484,7744,464,-1344,9585,1049
981455,1669,924,456,17708,7932,8,-1312,7991,2417
981465,1663,924,455,16416,7568,-204,-1312,5775,3373
981475,1655,923,453,15256,7416,1060,-1312,4593,3389
981485,1669,924,445,14556,6560,1456,-1328,5039,1975
981495,1662,925,445,14492,6096,1420,-1344,5901,265
981505,1671,924,440,14348,6252,1724,-1344,6796,-1353
981515,1671,924,439,14624,6472,1344,-1360,7477,-2264
981525,1669,923,443,14736,6464,580,-1344,7559,-2823
981535,1669,924,441,14844,6964,676,-1312,7508,-2587
981545,1669,925,440,14584,6608,92,-1376,7440,-2221
981555,1670,924,439,14572,6536,-316,-1344,7463,-2438
981565,1663,923,421,14164,6156,-748,-1328,7165,-2461
981575,1663,925,442,14232,6288,-488,-1344,7285,-2423
981585,1673,925,445,13920,6080,-608,-1344,7722,-1978
981595,1669,923,444,14192,5932,-708,-1344,7484,-1769
981605,1663,925,453,14120,5836,-556,-1344,6945,-1831
981615,1670,924,445,13832,5320,-332,-1328,6780,-1850
981625,1668,923,446,13844,4964,-84,-1360,7222,-1616
981635,1669,925,446,13872,4928,-80,-1328,7929,-1362
981645,1672,926,446,13928,5332,-740,-1360,8854,-956
981655,1677,925,453,14064,5424,-1236,-1344,8753,-513
981665,1673,925,446,13452,7048,-480,-1328,9126,393
981675,1671,927,445,13504,5872,-2792,-1328,8722,356
981685,1669,921,443,13896,4820,-3140,-1344,6619,-1172
981695,1663,923,477,13856,4928,-1212,-1360,5240,-1117
981705,1669,927,445,13448,3908,-704,-1328,5309,619
981715,1663,925,441,13636,3080,-1072,-1360,5643,1478
981725,1663,925,455,13984,2888,-328,-1328,5889,1636
981735,1672,926,453,14396,3596,-552,-1376,7582,779
981745,1663,927,447,14200,4008,-664,-1328,9017,359
981755,1669,924,445,14464,4136,-876,-1360,8450,747
981765,1663,926,446,14796,4420,-932,-1344,6757,1124
981775,1643,925,441,14692,4088,-1180,-1328,5909,1057
981785,1669,927,441,14740,3008,-1492,-1376,4706,604
981795,1668,925,443,14892,2664,-652,-1328,3834,402
981805,1672,925,447,15036,1964,-504,-1328,3528,306
981815,1669,925,444,15056,1808,-524,-1344,3417,473
981825,1673,925,437,14632,1764,136,-1312,3762,940
981835,1692,926,445,13768,1760,16,-1376,3982,1680
981845,1671,925,444,12616,1628,-396,-1312,3326,2196
981855,1670,926,445,11436,888,-748,-1360,2088,2318
981865,1664,917,442,11152,124,-988,-1312,1468,1775
981875,1662,911,441,11292,-896,-1412,-1344,1871,442
981885,1688,925,441,11828,-2212,-1368,-1344,2049,-505
981895,1679,927,446,12912,-2376,420,-1344,3100,-244
981905,1671,927,453,13772,-2148,1740,-1328,4744,1139
981915,1671,927,447,14076,-1428,2164,-1312,6090,2652
981925,1672,927,447,12920,-644,1940,-1344,6621,3810
981935,1672,925,445,11904,-148,1368,-1360,6491,4069
981945,1693,925,442,11048,-364,-132,-1360,6316,2645
981955,1676,927,441,10528,-504,-844,-1360,5652,597
981965,1671,926,441,10684,-412,-612,-1376,4473,-860
981975,1671,932,443,11440,-556,-984,-1344,3137,-1232
981985,1669,925,447,11892,-620,-584,-1312,2281,-808
981995,1671,925,446,12472,-684,152,-1328,2035,326
982005,1670,926,454,11832,-864,172,-1328,2152,1630
982015,1671,927,448,10860,-764,572,-1328,2784,2436
982025,1671,927,445,9588,-440,304,-1344,3827,2728
982035,1673,910,447,8124,432,320,-1328,4389,2949
982045,1670,954,443,7200,1120,-804,-1328,4952,2061
982055,1671,927,443,6928,1020,-2380,-1360,4852,35
982065,1671,923,443,6716,1260,-1804,-1360,3844,-1524
982075,1654,931,423,13508,-3816,-4560,-1344,1694,-4339
982085,1709,809,350,32767,-4132,-3616,-1296,-3012,-23344
982095,1708,904,477,32767,5468,-6008,-1392,-6617,-32768
982105,1693,920,672,32767,-7812,-18660,-1344,-6760,-32768
982115,1613,932,364,21956,-13744,-2888,-1328,-6369,-9469
982125,1597,934,265,1016,-4228,13728,-1296,8802,32767
982135,1685,933,456,-1684,-7640,12524,-1328,15530,32767
982145,1690,915,482,12128,-504,4680,-1328,10677,32767
982155,1737,927,491,-1560,-680,-4120,-1376,-1359,32767
982165,1723,932,446,556,-460,2056,-1312,3649,-17595
982175,1609,920,426,9608,4144,-22396,-1344,1778,-18891
982185,1625,921,411,24200,6592,1456,-1344,8225,-30204
982195,1655,932,399,-976,13792,-30644,-1328,14823,-32768
982205,1691,917,425,18660,9320,-2616,-1344,3726,-32768
982215,1677,923,458,22500,5532,-6208,-1376,2826,-28816
982225,1653,923,471,25688,2804,-10768,-1360,-8641,-14107
982235,1658,927,445,28724,4236,1384,-1344,-6936,-172
982245,1660,924,439,21516,6024,3084,-1328,2733,11847
982255,1673,927,427,16172,7268,-5244,-1344,8630,16640
982265,1659,925,445,12932,7464,-10680,-1312,5421,14357
982275,1657,931,455,14140,12668,-6832,-1360,-1661,8510
982285,1676,933,463,11096,9924,-10240,-1360,-6629,294
982295,1660,924,441,11224,7072,-7172,-1328,-11364,-6479
982305,1673,940,467,11860,6844,-21984,-1328,-17987,-10135
982315,1675,926,443,19016,3472,-1936,-1344,-14845,-14633
982325,1675,914,456,19888,2784,152,-1344,-7801,-12653
982335,1671,925,433,20632,2744,416,-1344,-320,-7318
982345,1671,927,435,18860,2924,-2984,-1328,5234,-1130
982355,1656,926,455,16800,4452,-4848,-1328,7068,3404
982365,1671,928,443,15532,5900,-5908,-1344,6728,4759
982375,1669,932,439,15012,6704,-6344,-1344,5109,2962
982385,1661,927,445,14736,6508,-4432,-1376,1749,848
982395,1669,927,445,14912,6700,-2924,-1312,-1106,-620
982405,1670,925,447,14504,5016,-3032,-1344,-62,-2673
982415,1671,923,447,15052,4288,-3380,-1344,1803,-3929
982425,1672,924,435,16048,5096,-2144,-1312,4639,-3999
982435,1671,925,435,17204,5620,-4520,-1344,6907,-4421
982445,1670,925,438,17400,5308,-5032,-1328,5704,-3509
982455,1663,925,453,17404,5720,-3672,-1328,3395,-547
982465,1675,925,442,17224,6140,-3068,-1328,3076,1581
982475,1663,969,446,16432,5588,-3264,-1344,4182,1488
982485,1671,927,441,16520,6300,-1416,-1328,4202,1299
982495,1673,925,441,16188,6088,-3152,-1344,4388,-66
982505,1671,927,446,17116,4952,-3888,-1344,2354,-2226
982515,1669,917,445,17092,4808,-1944,-1328,61,-2743
982525,1669,925,445,16896,5316,-1196,-1328,474,-2350
982535,1671,925,440,16552,5240,-1824,-1360,2516,-2471
982545,1670,927,445,15976,4700,-2688,-1360,3412,-2497
982555,1663,917,446,15716,4352,-3392,-1312,2629,-2296
982565,1669,925,442,15476,3988,-3508,-1392,1094,-1896
982575,1669,926,439,15356,5064,-2544,-1344,963,-1638
982585,1670,926,447,15408,5332,-3444,-1328,2514,-2126
982595,1669,925,443,15920,4844,-5476,-1328,2894,-3537
982605,1651,924,443,16720,4240,-5876,-1344,1780,-4544
982615,1671,925,443,16796,3600,-6100,-1344,-23,-4038
982625,1669,925,441,16532,3688,-4900,-1344,-424,-2348
982635,1669,925,444,16596,3500,-5204,-1344,806,-1105
982645,1663,924,427,16476,3184,-5432,-1328,1857,-984
982655,1669,927,461,16516,3044,-5724,-1312,1935,-1048
982665,1669,925,443,16504,2920,-5672,-1312,1085,-987
982675,1663,926,437,16728,2908,-4988,-1328,579,-971
982685,1669,925,438,16316,2804,-4892,-1344,418,-796
982695,1669,927,445,15952,2544,-4116,-1328,613,-350
982705,1673,927,447,16092,2028,-3752,-1344,1245,-40
982715,1669,927,437,16040,1188,-4652,-1344,1703,-542
982725,1661,927,439,15932,1076,-4720,-1360,1744,-1153
982735,1672,926,432,15804,1176,-4608,-1360,2457,-1551
982745,1663,925,443,16148,684,-5040,-1328,2572,-1818
982755,1663,925,447,16380,852,-4304,-1312,2338,-1439
982765,1669,925,442,16136,1920,-3468,-1344,3273,-398
982775,1663,925,439,15700,2472,-4896,-1328,4152,339
982785,1671,903,440,15088,3044,-5896,-1360,4245,136
982795,1669,925,441,14940,2700,-6852,-1328,3238,-274
982805,1669,931,453,15716,1632,-7000,-1328,439,-844
982815,1663,925,443,16396,772,-4472,-1344,-1785,-912
982825,1663,926,440,16092,1220,-2404,-1328,-1068,-107
982835,1671,924,441,15476,2620,-3284,-1360,1646,995
982845,1669,927,451,15156,2536,-6752,-1312,3024,714
982855,1671,926,446,15344,1220,-7984,-1344,619,-512
982865,1671,935,441,15796,840,-4076,-1312,-1858,-502
982875,1669,925,443,16284,72,-2808,-1360,-2330,159
982885,1693,925,443,16172,-396,-4820,-1328,-2610,-197
982895,1669,925,442,15632,-168,-4004,-1312,-2191,-484
982905,1669,944,441,15804,-76,-5692,-1376,-1254,-463
982915,1671,928,429,15772,416,-6372,-1344,-1001,-659
982925,1670,1019,440,15924,1040,-5100,-1312,-291,4
982935,1669,926,455,16112,680,-5656,-1344,-468,550
982945,1669,925,444,16188,116,-4884,-1312,-1392,844
982955,1670,925,442,15864,-432,-5296,-1344,-2426,822
982965,1659,927,441,15760,88,-5332,-1360,-2944,414
982975,1669,924,441,15920,-104,-5276,-1344,-2508,-68
982985,1661,925,437,16004,-128,-5288,-1312,-2287,-179
982995,1707,926,431,16300,324,-4168,-1328,-1498,229
983005,1669,925,439,16404,544,-5036,-1344,-1123,423
983015,1669,925,445,16584,732,-5592,-1328,-2048,503
983025,1670,947,435,16372,876,-5200,-1312,-3200,753
983035,1659,924,445,16096,808,-5788,-1344,-4072,1070
983045,1659,926,452,15928,352,-6620,-1360,-5404,1004
983055,1673,926,439,15640,-304,-4960,-1360,-5924,978
983065,1670,925,433,15724,-532,-4952,-1328,-5403,940
983075,1670,923,436,15616,-244,-5328,-1328,-4899,781
983085,1670,924,441,15448,-396,-5572,-1344,-4248,648
983095,1669,925,443,15932,-1060,-5916,-1360,-4628,708
983105,1671,927,423,15880,-1168,-5116,-1328,-5000,733
983115,1663,925,441,16092,-1352,-5236,-1312,-4687,464
983125,1677,919,439,16180,-1952,-5464,-1328,-4833,190
983135,1668,925,441,16220,-2508,-5080,-1344,-5023,219
983145,1669,925,441,16180,-2940,-4856,-1328,-4713,335
983155,1661,925,442,16340,-2908,-4732,-1328,-3809,207
983165,1663,925,443,16400,-2740,-5100,-1344,-2696,-1
983175,1669,925,439,16564,-1956,-4816,-1312,-1249,59
983185,1669,927,437,16460,-1320,-5100,-1344,178,347
983195,1661,926,443,16192,-1376,-5888,-1344,445,841
983205,1663,924,461,16412,-1664,-6396,-1328,-168,729
983215,1661,927,435,16988,-596,-5476,-1312,329,-336
983225,1663,925,431,17084,1012,-5316,-1344,2242,-567
983235,1669,926,447,16848,1388,-6424,-1328,2630,499
983245,1669,927,446,16500,432,-6792,-1312,495,1996
983255,1669,926,455,15656,-724,-5560,-1328,-2102,2839
983265,1669,927,471,14796,-2332,-5504,-1312,-3596,2455
983275,1655,925,458,14576,-3604,-6088,-1312,-4329,1328
983285,1662,925,459,14900,-4724,-5904,-1328,-4201,-34
983295,1658,926,459,15456,-5216,-5072,-1328,-3046,-565
983305,1669,923,460,16212,-4796,-4540,-1344,-1050,148
983315,1663,924,460,16700,-4108,-4708,-1360,740,1371
983325,1663,925,452,16572,-2904,-4704,-1312,1373,2593
983335,1671,925,448,16084,-1916,-4144,-1360,1334,3012
983345,1670,925,447,15756,-1260,-4444,-1328,900,2527
983355,1669,924,444,15564,-784,-4220,-1312,455,1672
983365,1669,923,477,15608,-772,-4120,-1344,193,921
983375,1657,925,442,16120,-500,-4696,-1312,-173,644
983385,1663,850,443,16344,220,-4600,-1312,178,699
983395,1662,924,440,16592,624,-5140,-1312,822,948
983405,1663,927,435,16580,1272,-4716,-1312,939,1278
983415,1707,925,435,16808,1624,-4064,-1312,792,1688
983425,1669,926,435,16472,1600,-4500,-1328,6,1960
983435,1669,926,442,16324,1124,-4448,-1312,-1129,1590
983445,1673,925,439,16260,784,-4024,-1312,-1780,922
983455,1669,970,440,16244,572,-3784,-1312,-1367,488
983465,1663,926,442,16380,568,-4240,-1280,-509,499
983475,1663,926,439,16588,620,-4136,-1328,73,858
983485,1669,927,440,16548,492,-4188,-1312,-260,1494
983495,1663,925,441,16132,332,-4460,-1344,-1231,1832
983505,1671,950,440,15840,-320,-4404,-1296,-1962,1330
983515,1663,925,442,15844,-936,-4332,-1312,-2200,532
983525,1669,924,442,16108,-1156,-4292,-1328,-1939,200
983535,1672,925,443,16456,-1308,-4316,-1328,-1460,476
983545,1663,925,443,16544,-1196,-4472,-1344,-914,829
983555,1669,920,443,16400,-1080,-4184,-1328,-523,1311
983565,1663,926,444,16364,-760,-4172,-1296,-618,1773
983575,1663,925,443,16220,-752,-4312,-1296,-932,1562
983585,1661,924,441,16120,-652,-4252,-1328,-1212,912
983595,1669,926,441,16300,-768,-3960,-1312,-1158,535
983605,1663,925,441,16588,-796,-3924,-1328,-854,585
983615,1669,927,442,16596,-704,-3596,-1296,-377,1076
983625,1669,925,441,16460,-756,-3844,-1312,-119,1413
983635,1670,933,443,16248,-796,-3892,-1296,-189,1423
983645,1671,925,441,16040,-720,-3560,-1312,-76,1056
983655,1669,925,439,16312,-404,-3524,-1328,291,499
983665,1663,924,439,16580,-8,-3784,-1296,516,342
983675,1663,926,441,16644,-32,-3732,-1312,313,671
983685,1669,926,441,16508,-112,-3368,-1312,61,1198
983695,1669,925,440,16340,-276,-3592,-1344,-156,1302
983705,1669,925,458,16004,-476,-3884,-1328,-217,765
983715,1681,924,438,16228,-456,-3904,-1328,52,165
983725,1669,927,440,16540,-244,-4120,-1312,492,36
983735,1663,924,441,16776,-88,-4300,-1312,608,444
983745,1683,927,442,16460,-24,-4196,-1344,387,1075
983755,1663,918,440,16256,220,-3956,-1344,155,1410
983765,1670,925,443,16012,-88,-4152,-1328,-363,1150
983775,1668,926,441,15956,-220,-4284,-1312,-838,497
983785,1663,924,441,16240,-368,-3840,-1312,-754,43
983795,1669,925,441,16768,-292,-3708,-1296,-396,189
983805,1662,924,443,16740,-264,-3836,-1312,-143,732
983815,1669,927,443,16580,-300,-3844,-1344,-121,1226
983825,1663,931,440,16348,-276,-3972,-1312,-374,1175
983835,1670,924,440,16176,-280,-3636,-1312,-718,784
983845,1671,922,438,16364,-264,-3476,-1312,-725,468
983855,1663,925,414,16388,-372,-3696,-1360,-711,330
983865,1668,923,442,16524,-652,-3812,-1296,-677,429
983875,1669,925,441,16588,-832,-3796,-1296,-448,575
983885,1669,919,440,16464,-752,-3920,-1280,-75,617
983895,1669,923,467,16404,-360,-3900,-1328,455,531
983905,1663,926,444,16520,-240,-3584,-1312,758,548
983915,1668,926,391,16516,-84,-3868,-1296,409,753
983925,1669,925,443,16372,20,-4036,-1360,-279,846
983935,1663,923,444,16140,-248,-3772,-1312,-683,633
983945,1651,925,441,16252,-556,-3960,-1328,-661,382
983955,1669,925,442,16312,-748,-3924,-1328,-421,203
983965,1663,927,441,16528,-756,-3880,-1328,-55,320
983975,1662,1006,440,16712,-516,-3400,-1312,360,730
983985,1669,926,440,16516,-236,-3568,-1296,375,1059
983995,1670,926,443,16308,-328,-3744,-1328,-78,1005
984005,1663,925,441,16156,-360,-3832,-1296,-536,551
984015,1663,926,441,16324,-620,-3600,-1296,-539,128
984025,1663,925,441,16484,-828,-3644,-1328,-192,-86
984035,1663,924,443,16664,-624,-3688,-1312,186,293
984045,1663,926,440,16644,-540,-3828,-1328,472,693
984055,1668,925,437,16624,-248,-3712,-1296,461,905
984065,1669,923,441,16412,-184,-3808,-1328,221,803
984075,1669,925,443,16316,-204,-3696,-1328,23,610
984085,1661,925,439,16320,-288,-3752,-1328,-45,349
984095,1663,925,441,16364,-504,-3580,-1328,-60,310
984105,1662,925,441,16476,-380,-3472,-1328,31,411
984115,1669,927,453,16608,-340,-3480,-1312,290,574
984125,1663,925,444,16592,-204,-3584,-1328,406,646
984135,1662,926,440,16380,-140,-3812,-1296,367,634
984145,1670,922,439,16400,56,-3660,-1328,283,558
984155,1669,925,441,16400,132,-3636,-1360,148,478
984165,1669,925,431,16416,92,-3780,-1376,-13,408
984175,1628,927,437,16536,68,-3644,-1312,-134,321
984185,1663,926,439,16712,136,-3692,-1328,-170,310
984195,1669,925,439,16600,12,-3616,-1328,-194,379
984205,1663,924,440,16592,72,-3408,-1312,-79,530
984215,1669,925,441,16560,28,-3484,-1312,63,529
984225,1669,923,439,16464,-80,-3808,-1296,-34,439
984235,1670,925,439,16400,-28,-3656,-1344,-66,301
984245,1663,925,441,16520,52,-3832,-1328,-32,193
984255,1638,925,441,16660,48,-4048,-1344,-44,326
984265,1668,925,495,16632,244,-4124,-1344,-405,565
984275,1663,926,441,16608,148,-3988,-1296,-907,757
984285,1663,915,444,16364,-108,-3820,-1328,-1244,759
984295,1668,927,441,16340,-352,-3524,-1296,-1383,705
984305,1663,925,440,16284,-552,-3292,-1312,-1409,651
984315,1663,916,440,16420,-844,-2972,-1344,-1289,572
984325,1669,927,441,16460,-1136,-2964,-1328,-1051,413
984335,1663,926,440,16396,-1040,-2760,-1328,-509,292
984345,1669,925,437,16636,-912,-3148,-1296,277,248
984355,1663,923,438,16616,-624,-3064,-1328,852,326
984365,1663,924,441,16600,-72,-3664,-1312,949,543
984375,1663,923,438,16484,352,-3796,-1328,650,595
984385,1669,925,439,16528,312,-3704,-1296,133,466
984395,1663,926,441,16472,228,-3760,-1296,-342,321
984405,1663,928,440,16564,36,-3696,-1328,-456,184
984415,1663,926,440,16612,4,-3248,-1312,-206,238
984425,1668,927,440,16644,-80,-3492,-1296,62,456
984435,1673,925,441,16476,-48,-3584,-1328,85,536
984445,1669,925,439,16388,112,-3212,-1312,-46,478
984455,1670,924,440,16416,172,-3340,-1328,-58,345
984465,1661,915,439,16524,252,-3296,-1312,-35,162
984475,1669,925,441,16604,388,-3328,-1328,100,160
984485,1663,925,439,16724,368,-3168,-1328,102,349
984495,1663,927,440,16568,436,-3432,-1312,-98,493
984505,1669,948,440,16460,384,-3560,-1344,-302,490
984515,1663,924,438,16404,216,-3260,-1344,-369,304
984525,1669,924,438,16368,-16,-3180,-1296,-297,140
984535,1671,925,439,16548,60,-3464,-1296,-115,76
984545,1660,987,439,16604,84,-3364,-1312,147,113
984555,1664,925,452,16632,84,-3452,-1328,175,276
984565,1669,926,436,16652,124,-3464,-1280,73,400
984575,1663,925,437,16412,204,-3596,-1328,-81,337
984585,1663,925,439,16460,40,-3488,-1280,-299,247
984595,1661,925,435,16484,-176,-3476,-1312,-562,192
984605,1669,926,440,16492,-364,-3444,-1328,-587,147
984615,1669,925,440,16480,-444,-3388,-1296,-360,121
984625,1669,927,437,16488,-404,-3112,-1328,51,82
984635,1663,923,439,16616,-288,-3328,-1344,409,158
984645,1669,925,439,16600,-92,-3612,-1312,503,218
984655,1669,925,441,16500,108,-3704,-1328,238,244
984665,1663,925,441,16528,88,-3544,-1328,-89,248
984675,1663,925,441,16544,12,-3712,-1328,-275,223
984685,1663,925,439,16480,-64,-3588,-1312,-313,218
984695,1668,923,440,16524,-240,-3648,-1312,-258,144
984705,1662,927,439,16632,-300,-3516,-1264,-224,163
984715,1663,921,441,16548,-376,-3404,-1328,-245,285
984725,1663,926,441,16648,-444,-3384,-1296,-234,353
984735,1663,878,437,16584,-492,-3500,-1328,-212,328
984745,1663,924,439,16556,-568,-3440,-1280,-194,279
984755,1663,925,440,16420,-548,-3500,-1296,-215,229
984765,1664,925,439,16516,-420,-3380,-1312,-132,158
984775,1669,925,437,16428,-504,-3592,-1328,6,140
984785,1662,925,438,16712,-384,-3524,-1296,153,218
984795,1663,925,441,16516,-336,-3772,-1280,223,359
984805,1671,924,440,16524,-220,-3560,-1296,182,405
984815,1669,965,441,16508,-268,-3656,-1296,-28,418
984825,1669,922,439,16480,-232,-3480,-1328,-185,402
984835,1661,925,440,16676,-144,-3432,-1344,-213,409
984845,1669,925,439,16548,-284,-3340,-1312,-173,230
984855,1679,925,415,16584,-260,-3244,-1296,-22,265
984865,1663,925,441,16480,-196,-3384,-1328,133,341
984875,1669,925,441,16556,-48,-3392,-1312,120,396
984885,1663,926,438,16524,-60,-3432,-1328,32,434
984895,1663,927,438,16452,4,-3560,-1280,-159,353
984905,1661,925,439,16460,-24,-3372,-1328,-199,302
984915,1669,979,439,16496,44,-3272,-1296,-140,278
984925,1663,926,441,16440,-172,-3336,-1312,-153,273
984935,1663,923,437,16548,-124,-3340,-1296,-210,303
984945,1664,924,440,16576,-196,-3356,-1264,-138,284
984955,1663,927,439,16440,-252,-3524,-1328,-57,245
984965,1663,925,439,16520,-60,-3376,-1328,-12,218
984975,1669,925,441,16628,28,-3444,-1280,-82,257
984985,1669,925,439,16592,-108,-3500,-1328,-182,298
984995,1663,925,445,16556,28,-3336,-1328,-257,378
985005,1637,926,439,16532,-76,-3480,-1296,-325,347
985015,1663,924,439,16500,-240,-3516,-1296,-365,287
985025,1663,923,438,16508,-100,-3216,-1280,-313,307
985035,1663,923,438,16372,-156,-3260,-1328,-175,312
985045,1669,934,439,16452,-276,-3356,-1296,-157,265
985055,1671,925,439,16600,-184,-3508,-1296,-92,269
985065,1663,919,437,16552,-100,-3156,-1296,10,291
985075,1663,924,440,16692,-44,-3364,-1312,-55,316
985085,1669,927,441,16460,-4,-3624,-1296,-230,307
985095,1663,925,439,16476,-180,-3280,-1296,-399,296
985105,1662,925,437,16460,-236,-3252,-1296,-321,263
985115,1663,925,438,16492,-260,-3476,-1296,-274,229
985125,1663,928,439,16536,-216,-3276,-1312,-226,252
985135,1663,925,438,16568,-196,-3276,-1328,-111,292
985145,1663,925,439,16564,-68,-3320,-1296,3,342
985155,1687,925,437,16572,16,-3500,-1312,55,381
985165,1628,919,437,16544,-40,-3400,-1328,-82,355
985175,1669,918,439,16452,36,-3332,-1280,-245,304
985185,1669,923,438,16432,12,-3316,-1296,-305,248
985195,1663,925,437,16388,-84,-3344,-1264,-255,235
985205,1663,923,439,16560,-220,-3356,-1312,-154,297
985215,1664,923,439,16580,-192,-3176,-1328,-5,288
985225,1663,925,439,16536,-16,-3284,-1280,39,236
985235,1670,924,439,16600,0,-3208,-1296,12,261
985245,1669,925,444,16624,-20,-3316,-1328,-25,159
985255,1663,925,437,16584,36,-3204,-1312,-62,205
985265,1662,925,437,16552,8,-3484,-1328,-115,243
985275,1663,923,437,16544,-20,-3292,-1296,-168,307
985285,1669,925,439,16476,-120,-3292,-1296,-122,281
985295,1663,925,439,16580,-16,-3168,-1328,-84,242
985305,1663,925,437,16420,-52,-3176,-1312,-4,247
985315,1659,926,439,16572,16,-3372,-1296,27,256
985325,1662,927,440,16484,-44,-3404,-1296,7,209
985335,1669,925,438,16556,-128,-3332,-1296,-27,233
985345,1662,923,437,16456,-16,-3360,-1296,-21,215
985355,1662,925,439,16496,132,-3316,-1312,5,231
985365,1669,925,439,16576,160,-3612,-1296,-105,201
985375,1663,926,437,16636,56,-3404,-1328,-185,245
985385,1669,925,438,16528,84,-3296,-1296,-249,262
985395,1663,925,459,16548,36,-3316,-1296,-331,276
985405,1664,901,437,16480,-240,-3464,-1328,-412,227
985415,1662,925,438,16512,-204,-3176,-1296,-291,155
985425,1662,924,437,16556,-264,-3204,-1312,61,109
985435,1663,983,439,16656,-64,-3392,-1312,266,217
985445,1668,924,440,16556,-28,-3244,-1296,109,300
985455,1669,923,437,16440,-48,-3340,-1312,-105,304
985465,1701,925,438,16496,4,-3440,-1296,-151,170
985475,1692,925,436,16560,-172,-3388,-1328,-112,18
985485,1663,923,436,16636,-16,-3332,-1296,-109,38
985495,1663,925,437,16620,-108,-3260,-1312,-118,176
985505,1663,925,437,16596,-64,-3380,-1296,-68,266
985515,1669,925,435,16600,-44,-3236,-1296,13,250
985525,1663,924,437,16452,68,-3388,-1328,33,192
985535,1663,924,439,16464,32,-3412,-1280,-154,95
985545,1669,925,437,16524,-56,-3228,-1296,-225,25
985555,1663,925,438,16556,-316,-3456,-1280,-274,93
985565,1663,924,437,16524,-240,-3432,-1296,-78,163
985575,1663,925,436,16532,-108,-3348,-1296,175,167
985585,1670,925,438,16512,-44,-3240,-1280,275,157
985595,1663,925,441,16612,92,-3416,-1328,216,128
985605,1662,925,437,16600,-144,-3228,-1328,24,31
985615,1663,920,439,16660,-252,-3368,-1296,-78,-2
985625,1669,908,440,16528,-188,-3452,-1312,125,13
985635,1661,923,437,16448,-180,-3540,-1312,385,177
985645,1663,925,435,16344,-204,-3768,-1296,323,116
985655,1663,925,435,16576,60,-3664,-1296,167,103
985665,1663,925,436,16436,96,-3480,-1296,161,117
985675,1669,925,435,16456,132,-3512,-1312,26,154
985685,1663,927,437,16508,224,-3576,-1312,-238,186
985695,1664,925,437,16492,40,-3540,-1280,-381,181
985705,1663,925,441,16532,0,-3248,-1296,-235,174
985715,1663,917,437,16592,-84,-3348,-1296,-23,177
985725,1663,924,437,16484,28,-3484,-1312,58,247
985735,1663,926,437,16516,132,-3436,-1280,47,269
985745,1663,925,439,16464,208,-3460,-1296,-50,208
985755,1669,925,437,16604,92,-3368,-1344,-136,103
985765,1663,923,438,16652,-108,-3276,-1296,-193,39
985775,1663,924,437,16680,-64,-3388,-1312,-93,136
985785,1663,925,437,16644,-28,-3600,-1280,52,246
985795,1661,925,437,16412,-48,-3692,-1264,-46,291
985805,1668,924,437,16560,-20,-3512,-1280,-299,312
985815,1663,926,437,16388,56,-3516,-1280,-307,233
985825,1661,926,438,16468,-52,-3376,-1280,-194,179
985835,1663,925,438,16664,60,-3264,-1312,-189,221
985845,1659,941,439,16656,-8,-3304,-1264,-265,348
985855,1661,925,439,16460,-104,-3340,-1280,-247,345
985865,1657,923,437,16500,-196,-3308,-1312,-62,283
985875,1663,923,437,16444,-116,-3328,-1312,90,278
985885,1663,925,440,16496,-8,-3568,-1280,4,267
985895,1657,923,437,16604,136,-3392,-1296,-169,307
985905,1663,924,437,16528,52,-3292,-1312,-226,328
985915,1663,925,436,16520,20,-3488,-1312,-195,277
985925,1669,925,439,16600,-52,-3380,-1264,-184,210
985935,1662,931,437,16544,-144,-3388,-1280,-254,172
985945,1670,925,439,16548,-104,-3316,-1296,-152,261
985955,1661,925,437,16608,-20,-3204,-1280,-5,374
985965,1671,924,439,16488,-72,-3444,-1280,-10,358
985975,1661,925,437,16428,-20,-3504,-1296,-114,282
985985,1669,922,436,16548,-88,-3452,-1312,-234,194
985995,1661,925,381,16584,-140,-3388,-1296,-116,90
986005,1663,925,438,16716,-32,-3292,-1280,36,205
986015,1671,913,435,16712,-8,-3456,-1312,36,364
986025,1663,924,438,16600,92,-3444,-1312,-38,408
986035,1663,925,438,16392,88,-3272,-1264,-121,243
986045,1663,925,444,16576,96,-3380,-1296,-99,204
986055,1663,925,436,16564,8,-3428,-1312,-113,211
986065,1663,924,437,16668,36,-3108,-1312,-96,197
986075,1663,925,436,16560,92,-3452,-1296,-55,295
986085,1663,924,433,16496,40,-3376,-1312,-74,316
986095,1671,926,435,16480,68,-3252,-1312,-96,239
986105,1663,925,437,16488,-16,-3328,-1312,-153,114
986115,1662,924,437,16472,88,-3244,-1280,-158,145
986125,1692,925,436,16568,68,-3332,-1296,-80,228
986135,1691,925,439,16692,-96,-3384,-1280,-89,218
986145,1670,925,439,16588,-28,-3172,-1280,-52,206
986155,1663,925,438,16548,-48,-3256,-1312,80,185
986165,1663,925,436,16512,28,-3412,-1344,66,136
986175,1663,925,435,16536,20,-3268,-1296,-18,218
986185,1669,927,439,16544,-68,-3460,-1312,-136,264
986195,1663,924,437,16604,-124,-3356,-1280,-255,186
986205,1661,923,438,16452,-152,-3404,-1312,-195,92
986215,1662,924,439,16592,-124,-3360,-1312,8,173
986225,1662,927,436,16640,-76,-3332,-1296,207,310
986235,1669,923,438,16452,-56,-3524,-1280,-1,354
986245,1663,925,436,16356,84,-3444,-1280,-160,298
986255,1663,925,436,16304,64,-3420,-1296,-184,179
986265,1661,924,435,16568,12,-3396,-1312,-266,109
986275,1669,925,435,16764,8,-3228,-1296,-263,118
986285,1664,923,437,16772,-52,-2976,-1280,38,153
986295,1662,923,437,16708,184,-3124,-1280,269,238
986305,1661,923,438,16576,160,-3152,-1296,317,254
986315,1663,925,437,16500,164,-3436,-1312,106,211
986325,1671,927,439,16312,200,-3604,-1280,-80,187
986335,1663,925,437,16436,112,-3516,-1280,-188,138
986345,1662,923,439,16364,-12,-3308,-1280,-174,65
986355,1662,915,437,16528,-72,-3528,-1280,-123,139
986365,1661,925,437,16732,36,-3360,-1312,-102,216
986375,1663,924,437,16628,28,-3300,-1312,-99,292
986385,1663,925,436,16508,-116,-3304,-1280,3,314
986395,1663,921,434,16356,16,-3468,-1280,78,280
986405,1663,925,435,16440,-32,-3520,-1296,-17,210
986415,1663,924,437,16528,8,-3396,-1312,-46,172
986425,1663,924,435,16524,68,-3452,-1312,-91,202
986435,1663,925,437,16528,44,-3456,-1312,-178,281
986445,1663,923,435,16580,20,-3312,-1296,-257,335
986455,1663,924,438,16424,-56,-3236,-1296,-236,166
986465,1663,925,436,16576,-100,-3140,-1312,-157,143
986475,1663,923,437,16600,-184,-3196,-1280,-118,115
986485,1663,923,436,16612,-164,-3312,-1280,15,169
986495,1652,923,440,16484,-56,-3352,-1328,169,229
986505,1669,925,436,16596,176,-3424,-1264,165,244
986515,1661,923,436,16472,260,-3532,-1280,-13,236
986525,1663,905,437,16620,220,-3524,-1248,-174,254
986535,1663,926,436,16448,68,-3300,-1248,-247,251
986545,1663,925,436,16452,-84,-3368,-1296,-198,208
986555,1663,949,435,16476,-168,-3240,-1264,-175,210
986565,1662,924,435,16560,-72,-3320,-1280,-222,252
986575,1661,923,427,16472,-196,-3412,-1280,-164,299
986585,1662,933,436,16532,-212,-3428,-1312,-131,270
986595,1663,923,431,16560,-232,-3340,-1280,-120,275
986605,1663,924,435,16540,-284,-3388,-1264,-157,225
986615,1653,923,415,16592,-312,-3476,-1280,-148,234
986625,1663,916,437,16652,-280,-3360,-1280,-89,205
986635,1663,855,439,16596,-344,-3072,-1312,128,188
986645,1683,925,437,16652,-112,-3100,-1280,319,193
986655,1662,925,437,16748,24,-3076,-1296,250,302
986665,1663,922,438,16596,124,-3208,-1312,108,359
986675,1663,925,437,16464,288,-3536,-1280,-75,221
986685,1663,925,437,16416,32,-3316,-1312,-227,66
986695,1663,925,436,16488,-128,-3300,-1280,-286,60
986705,1670,926,435,16532,-108,-3312,-1296,-113,111
986715,1663,944,435,16528,-104,-3216,-1280,97,213
986725,1661,924,436,16520,16,-3336,-1312,71,325
986735,1663,927,433,16484,-32,-3332,-1312,-21,245
986745,1663,925,435,16548,-52,-3044,-1280,79,119
986755,1671,919,435,16576,100,-3360,-1296,158,-8
986765,1707,923,437,16636,116,-3204,-1280,256,35
986775,1663,925,421,16588,268,-3476,-1296,334,121
986785,1661,925,437,16552,332,-3656,-1296,326,241
986795,1661,925,435,16504,488,-3728,-1296,93,220
986805,1663,925,437,16476,448,-3772,-1296,-240,115
986815,1662,924,435,16596,284,-3660,-1280,-583,122
986825,1663,925,445,16656,32,-3212,-1264,-728,132
986835,1653,923,435,16756,-80,-3088,-1296,-578,140
986845,1673,925,435,16644,-152,-3244,-1264,-282,126
986855,1663,923,436,16564,-292,-3048,-1264,-70,125
986865,1662,921,436,16460,-308,-3152,-1280,-25,279
986875,1669,1007,437,16548,0,-3304,-1328,18,275
986885,1662,927,440,16700,40,-3524,-1248,-120,115
986895,1663,925,437,16592,-108,-3136,-1280,-308,77
986905,1663,925,436,16604,-72,-3268,-1296,-322,214
986915,1661,925,435,16396,-188,-3524,-1280,-19,270
986925,1663,880,436,16448,-52,-3456,-1296,183,128
986935,1663,926,436,16468,-44,-3512,-1296,198,161
986945,1662,925,435,16652,80,-3632,-1296,5,232
986955,1663,925,437,16552,0,-3572,-1296,-293,216
986965,1661,925,435,16588,-200,-3264,-1280,-432,152
986975,1662,925,434,16584,-240,-3152,-1296,-301,123
986985,1661,911,435,16656,-280,-3216,-1296,-65,123
986995,1663,925,432,16604,-148,-3104,-1296,166,252
987005,1663,932,436,16584,-120,-3508,-1296,197,296
987015,1663,922,436,16604,-64,-3468,-1312,52,241
987025,1661,924,435,16548,-76,-3572,-1296,-70,135
987035,1662,924,435,16496,-92,-3468,-1264,-164,77
987045,1663,923,435,16544,-256,-3356,-1280,-108,129
987055,1663,926,435,16524,-288,-3460,-1296,32,166
987065,1663,924,435,16456,-64,-3384,-1296,59,225
987075,1696,925,434,16504,40,-3380,-1296,25,233
987085,1663,925,437,16508,-88,-3564,-1264,-85,161
987095,1662,925,435,16644,60,-3244,-1280,-154,114
987105,1663,923,436,16524,12,-3296,-1264,-77,163
987115,1663,925,437,16676,-28,-3464,-1296,-51,262
987125,1661,925,435,16488,8,-3224,-1264,-123,275
987135,1663,924,435,16636,-40,-3292,-1264,-186,202
987145,1663,923,432,16532,-108,-3288,-1280,-113,95
987155,1663,925,435,16748,-100,-3388,-1296,-7,61
987165,1663,923,436,16680,-116,-3392,-1264,-10,151
987175,1662,923,437,16628,-84,-3312,-1312,-19,282
987185,1693,895,435,16560,-136,-3396,-1296,-41,276
987195,1669,926,437,16460,-188,-3636,-1280,-87,203
987205,1663,924,435,16496,-180,-3280,-1296,-111,118
987215,1662,923,435,16540,-80,-3416,-1280,-150,116
987225,1663,925,438,16520,-88,-3504,-1264,-120,183
987235,1663,925,436,16468,-140,-3320,-1296,-56,243
987245,1661,924,435,16484,-108,-3276,-1280,-71,6
987255,1669,923,435,16420,-56,-3388,-1264,-197,155
987265,1663,925,436,16476,-116,-3388,-1264,-191,103
987275,1669,925,436,16632,-200,-3168,-1280,-143,86
987285,1662,921,435,16632,-100,-3316,-1296,-53,192
987295,1662,923,437,16528,-80,-3376,-1280,3,305
987305,1662,923,429,16548,-88,-3424,-1296,1,304
987315,1655,923,436,16548,24,-3400,-1296,-56,234
987325,1663,925,435,16496,44,-3500,-1280,-78,134
987335,1669,924,435,16592,-56,-3344,-1264,-86,108
987345,1662,925,435,16720,-32,-3296,-1280,-90,191
987355,1663,924,435,16616,-64,-3156,-1264,-45,296
987365,1663,925,435,16460,-108,-3300,-1264,40,309
987375,1659,923,435,16440,84,-3364,-1280,81,221
987385,1662,925,435,16432,-32,-3372,-1264,88,107
987395,1661,925,436,16520,124,-3256,-1264,28,96
987405,1662,926,436,16596,224,-3244,-1296,3,195
987415,1662,926,434,16608,152,-3428,-1296,-10,295
987425,1662,923,415,16500,136,-3368,-1248,-107,312
987435,1663,923,435,16548,128,-3440,-1264,-169,258
987445,1663,925,435,16424,-48,-3432,-1296,-226,165
987455,1663,924,433,16432,-240,-3288,-1296,-212,140
987465,1662,932,431,16688,-132,-3204,-1280,-129,209
987475,1671,924,435,16680,-172,-3436,-1280,-79,259
987485,1662,925,442,16552,-200,-3316,-1264,-54,293
987495,1663,924,434,16516,-236,-3236,-1264,-31,269
987505,1663,925,443,16568,-232,-3256,-1264,-1,193
987515,1652,923,435,16532,-148,-3208,-1296,-89,165
987525,1671,905,435,16552,-192,-3428,-1280,-138,135
987535,1661,925,434,16472,-160,-3440,-1232,-57,141
987545,1662,922,437,16516,-108,-3480,-1280,54,166
987555,1687,932,437,16604,-92,-3404,-1296,36,196
987565,1668,924,439,16548,-12,-3460,-1296,-96,251
987575,1663,925,436,16596,12,-3440,-1280,-236,289
987585,1661,925,434,16528,-44,-3420,-1264,-273,173
987595,1663,923,431,16420,-96,-3308,-1296,-194,95
987605,1663,922,435,16588,-188,-3344,-1264,-124,116
987615,1661,925,435,16504,-148,-3244,-1280,30,158
987625,1663,923,435,16520,-40,-3192,-1280,197,222
987635,1662,925,436,16504,48,-3228,-1264,153,231
987645,1663,959,435,16424,108,-3476,-1264,25,191
987655,1661,926,434,16464,-20,-3412,-1296,-15,56
987665,1663,923,453,16508,-20,-3516,-1264,-91,85
987675,1663,925,435,16520,-140,-3492,-1280,14,84
987685,1661,923,435,16540,-120,-3612,-1264,151,107
987695,1663,925,435,16700,-40,-3364,-1264,107,263
987705,1662,926,435,16568,52,-3580,-1264,-117,312
987715,1653,924,437,16452,-76,-3340,-1264,-243,245
987725,1663,927,435,16420,-100,-3352,-1312,-184,129
987735,1663,925,435,16500,-268,-3404,-1296,-85,77
987745,1661,923,435,16632,-152,-3272,-1264,-10,173
987755,1661,922,435,16532,-60,-3216,-1280,69,279
987765,1663,923,434,16500,-64,-3508,-1264,59,254
987775,1663,923,438,16472,56,-3456,-1312,26,174
987785,1661,923,435,16540,80,-3236,-1264,31,131
987795,1661,924,435,16632,36,-3400,-1280,-62,110
987805,1664,921,431,16612,-32,-3296,-1280,-120,214
987815,1661,923,429,16564,8,-3396,-1280,-40,224
987825,1661,925,420,16576,-128,-3460,-1264,41,101
987835,1669,925,431,16544,-176,-3408,-1264,-52,24
987845,1659,924,431,16576,-236,-3380,-1312,-172,143
987855,1660,924,431,16568,-20,-3304,-1248,32,189
987865,1662,925,435,16604,68,-3344,-1264,321,215
987875,1663,925,434,16552,128,-3532,-1248,77,247
987885,1661,927,434,16380,96,-3564,-1232,-201,278
987895,1663,926,437,16456,116,-3356,-1280,-240,170
987905,1661,917,437,16504,12,-3352,-1280,-225,124
987915,1641,925,432,16524,-156,-3400,-1296,-223,232
987925,1661,924,430,16476,-56,-3352,-1264,-63,268
987935,1663,924,431,16412,92,-3060,-1264,204,303
987945,1662,920,429,16376,160,-3096,-1280,311,380
987955,1661,916,435,16536,276,-3300,-1280,-7,417
987965,1662,925,435,16364,88,-3244,-1296,-497,230
987975,1673,921,430,16468,112,-2808,-1248,-510,161
987985,1662,921,435,16504,-116,-3348,-1280,-400,-39
987995,1663,923,435,16724,-184,-3524,-1296,-368,-163
988005,1663,923,426,16720,-172,-3564,-1280,36,-15
988015,1663,925,429,16664,192,-3872,-1264,521,235
988025,1663,925,434,16592,520,-4028,-1248,592,422
988035,1662,927,432,16372,556,-3720,-1248,175,644
988045,1671,924,437,16240,864,-3504,-1232,-445,775
988055,1663,923,435,16284,528,-3512,-1296,-1192,450
988065,1659,922,435,16456,-52,-3340,-1264,-1944,-95
988075,1663,923,431,16660,-564,-2980,-1248,-1641,-354
988085,1662,924,431,16848,-384,-2964,-1280,-257,-174
988095,1663,926,431,17088,-140,-3140,-1296,801,486
988105,1663,925,435,16768,488,-3504,-1296,650,1039
988115,1663,925,437,16348,576,-4028,-1264,-374,898
988125,1663,1015,435,16168,156,-4140,-1248,-1227,168
988135,1663,927,434,16336,-164,-4132,-1280,-1257,-421
988145,1651,923,430,16780,-248,-3680,-1296,-631,-324
988155,1661,925,426,17048,-264,-3696,-1296,-42,334
988165,1661,925,435,17024,-156,-3868,-1296,203,959
988175,1661,861,435,16604,-12,-3716,-1264,139,1166
988185,1663,925,433,16392,-80,-3656,-1280,-259,754
988195,1663,926,437,16460,-220,-3884,-1264,-748,200
988205,1661,925,431,16624,-508,-3252,-1248,-795,-33
988215,1662,925,435,16828,-616,-3280,-1264,-377,257
988225,1663,923,436,16920,-632,-3548,-1264,44,758
988235,1661,927,431,16712,-532,-3584,-1280,247,999
988245,1663,927,435,16248,-352,-3188,-1264,304,975
988255,1662,926,440,16260,-392,-3268,-1264,183,711
988265,1661,921,435,16364,-332,-3320,-1264,115,445
988275,1662,923,435,16500,-332,-3104,-1264,165,372
988285,1673,925,431,16752,-172,-3024,-1280,177,502
988295,1658,922,436,16696,-76,-2824,-1296,331,706
988305,1662,925,432,16364,120,-2940,-1232,553,796
988315,1663,923,431,16564,244,-2940,-1248,628,685
988325,1661,926,435,16512,404,-2920,-1232,623,423
988335,1668,926,431,16516,376,-2944,-1248,493,247
988345,1663,925,431,16684,524,-2968,-1264,345,310
988355,1663,925,429,16568,536,-3036,-1264,307,420
988365,1663,924,429,16488,608,-3160,-1264,287,487
988375,1661,924,431,16492,396,-3024,-1264,180,481
988385,1685,933,431,16392,452,-3080,-1248,-99,477
988395,1662,925,434,16408,244,-3244,-1264,-275,403
988405,1663,924,431,16496,44,-3176,-1264,-352,359
988415,1663,924,435,16500,-156,-3008,-1248,-368,398
988425,1661,921,429,16704,-184,-2976,-1296,-285,423
988435,1663,923,437,16476,-276,-3020,-1264,-123,350
988445,1661,927,431,16644,-172,-3112,-1264,-43,348
988455,1661,927,431,16600,-88,-3132,-1264,-26,516
988465,1663,925,431,16460,-28,-3192,-1280,2,380
988475,1661,925,431,16508,152,-3144,-1264,-152,483
988485,1670,923,435,16528,-48,-3232,-1264,-416,383
988495,1663,921,430,16552,164,-3096,-1296,-528,323
988505,1661,919,430,16556,-156,-3128,-1296,-460,287
988515,1669,917,435,16628,-80,-3084,-1248,-380,324
988525,1662,923,431,16564,-212,-2768,-1264,-242,384
988535,1661,909,431,16568,-268,-2908,-1248,-65,411
988545,1661,917,428,16516,-40,-2972,-1264,27,397
988555,1655,921,435,16444,-8,-3088,-1296,33,338
988565,1663,921,432,16612,32,-3164,-1248,-129,312
988575,1661,1023,431,16656,48,-3004,-1264,-157,253
988585,1657,921,431,16516,-32,-3072,-1296,-203,212
988595,1662,922,439,16532,-84,-2940,-1312,-167,251
988605,1662,922,430,16664,-28,-3092,-1296,-93,292
988615,1663,921,434,16600,88,-3016,-1248,11,267
988625,1647,921,432,16576,172,-3148,-1264,25,234
988635,1662,921,431,16620,204,-3148,-1232,-7,191
988645,1663,928,436,16692,272,-3172,-1280,-30,178
988655,1663,931,430,16604,284,-3332,-1264,-102,217
988665,1661,926,431,16532,252,-3104,-1248,-187,290
988675,1663,925,429,16496,360,-3116,-1264,-281,325
988685,1663,924,425,16520,188,-3100,-1264,-437,295
988695,1663,926,429,16564,160,-3172,-1248,-593,217
988705,1661,928,431,16576,32,-2940,-1264,-527,171
988715,1662,923,435,16668,-140,-2932,-1264,-390,191
988725,1661,920,431,16628,-156,-2960,-1264,-238,206
988735,1659,921,435,16604,-144,-3104,-1264,-91,212
988745,1663,921,429,16580,-76,-3148,-1248,29,193
988755,1683,943,436,16688,56,-3184,-1264,59,227
988765,1661,925,435,16720,88,-2972,-1232,-121,186
988775,1661,925,435,16600,120,-3164,-1296,-363,158
988785,1662,923,431,16492,76,-3236,-1264,-246,115
988795,1661,924,430,16536,92,-3140,-1280,16,35
988805,1659,923,432,16648,96,-3208,-1264,42,47
988815,1663,925,431,16652,256,-2960,-1264,70,109
988825,1661,920,430,16612,204,-2892,-1248,35,239
988835,1661,923,433,16492,288,-2792,-1296,-13,200
988845,1661,924,435,16488,208,-3196,-1264,-130,19
988855,1663,926,431,16588,-64,-3128,-1232,-333,82
988865,1661,924,485,16588,-56,-3132,-1264,-286,25
988875,1661,924,429,16596,-52,-3120,-1248,41,3
988885,1661,925,428,16748,76,-3004,-1232,285,174
988895,1663,924,427,16464,204,-3240,-1232,303,264
988905,1670,926,434,16432,364,-3364,-1296,42,237
988915,1663,924,430,16612,336,-3068,-1232,-130,122
988925,1661,926,431,16536,316,-3004,-1280,-217,71
988935,1661,925,430,16584,268,-3208,-1264,-200,76
988945,1623,923,431,16524,192,-2960,-1232,-146,184
988955,1661,925,430,16488,340,-3108,-1232,-110,315
988965,1661,918,429,16544,376,-3132,-1264,6,313
988975,1661,926,429,16468,368,-3268,-1312,55,157
988985,1662,924,431,16520,408,-3164,-1264,-188,69
988995,1663,927,419,16576,328,-3044,-1280,-354,78
989005,1660,925,431,16480,168,-3044,-1264,-240,84
989015,1661,924,435,16556,84,-3108,-1264,-187,168
989025,1662,933,428,16640,-88,-3212,-1280,-235,127
989035,1661,923,431,16584,16,-3168,-1264,-162,61
989045,1662,925,429,16684,56,-3180,-1264,43,152
989055,1661,925,431,16752,256,-3140,-1264,99,286
989065,1661,933,441,16624,256,-3088,-1280,-21,311
989075,1661,923,431,16568,168,-3208,-1264,-250,254
989085,1657,921,429,16540,64,-3024,-1296,-366,127
989095,1661,925,429,16624,-44,-3128,-1232,-321,22
989105,1659,923,434,16656,-164,-2768,-1264,-122,75
989115,1661,923,430,16700,4,-2960,-1264,163,196
989125,1661,923,429,16556,60,-3088,-1216,221,247
989135,1661,924,431,16508,300,-3232,-1264,59,246
989145,1663,923,431,16560,360,-3064,-1296,-55,206
989155,1661,923,431,16504,252,-3176,-1264,-127,118
989165,1663,925,415,16508,152,-3148,-1264,-233,109
989175,1660,923,430,16652,0,-3144,-1232,-167,133
989185,1662,924,430,16592,8,-3288,-1264,-13,158
989195,1661,925,427,16600,252,-3100,-1280,115,182
989205,1661,923,429,16668,120,-3188,-1248,49,250
989215,1661,951,430,16600,300,-3060,-1264,-37,249
989225,1662,923,431,16704,260,-3108,-1280,-150,166
989235,1671,923,441,16636,-24,-3188,-1264,-241,80
989245,1662,923,429,16576,-32,-3292,-1280,-136,53
989255,1662,924,429,16628,-92,-3216,-1280,39,134
989265,1668,923,431,16636,-12,-3236,-1280,134,251
989275,1668,924,429,16516,196,-3412,-1264,76,477
989285,1661,925,429,16480,216,-3308,-1264,-128,334
989295,1663,926,436,16488,244,-3172,-1248,-191,202
989305,1663,923,431,16604,72,-3300,-1248,-265,103
989315,1662,922,429,16644,140,-3216,-1264,-278,172
989325,1661,925,430,16656,80,-3016,-1248,-137,303
989335,1661,924,430,16508,116,-3124,-1264,14,359
989345,1662,925,429,16572,124,-3004,-1248,33,252
989355,1662,923,429,16576,260,-3152,-1280,29,118
989365,1662,923,430,16764,304,-3084,-1264,108,72
989375,1663,916,429,16760,332,-3280,-1280,122,139
989385,1660,924,429,16752,248,-3220,-1280,-48,323
989395,1677,931,431,16672,220,-3428,-1280,-147,504
989405,1660,925,431,16424,76,-3308,-1280,-163,373
989415,1660,925,429,16500,-48,-3416,-1264,-248,188
989425,1661,909,429,16444,-4,-3340,-1280,-307,106
989435,1661,923,429,16608,-8,-3168,-1280,-203,241
989445,1661,925,430,16776,60,-3124,-1264,-171,436
989455,1661,923,430,16632,88,-3140,-1280,-190,501
989465,1663,924,441,16476,56,-3308,-1296,-218,397
989475,1671,924,430,16420,8,-3296,-1248,-276,281
989485,1656,925,429,16384,-20,-3332,-1280,-294,194
989495,1659,924,427,16536,-116,-3244,-1264,-255,192
989505,1661,924,429,16672,-40,-3044,-1248,-95,321
989515,1663,923,428,16776,4,-3152,-1264,94,422
989525,1661,923,440,16652,88,-3244,-1248,18,464
989535,1663,932,429,16524,92,-3076,-1280,-66,410
989545,1661,925,429,16556,4,-3272,-1264,-155,286
989555,1661,923,429,16568,-88,-3256,-1248,-295,297
989565,1661,924,429,16608,-216,-2984,-1280,-320,313
989575,1661,924,429,16596,-348,-3056,-1280,-160,365
989585,1662,923,430,16580,-164,-3016,-1280,-11,287
989595,1663,922,429,16596,-80,-2936,-1280,149,258
989605,1662,925,431,16572,112,-2920,-1248,278,299
989615,1669,923,430,16664,208,-3080,-1248,153,307
989625,1661,921,429,16548,248,-3000,-1248,-15,304
989635,1663,923,429,16572,240,-3144,-1248,-173,244
989645,1662,923,427,16624,240,-3084,-1264,-126,171
989655,1662,925,429,16696,252,-3100,-1248,-65,125
989665,1660,925,431,16616,120,-3044,-1280,-51,136
989675,1661,924,430,16516,160,-3060,-1280,16,295
989685,1661,923,430,16536,208,-3076,-1312,39,354
989695,1662,925,428,16552,128,-3128,-1264,-84,285
989705,1661,923,428,16488,-12,-3076,-1280,-278,171
989715,1663,924,428,16692,32,-2932,-1248,-253,159
989725,1659,923,429,16596,72,-3100,-1280,-102,195
989735,1662,942,429,16700,-24,-2976,-1280,-52,275
989745,1661,924,429,16636,44,-3256,-1296,-116,337
989755,1661,925,429,16580,-64,-3056,-1280,-72,257
989765,1661,923,429,16600,-20,-3232,-1280,-58,155
989775,1662,923,429,16564,0,-3244,-1264,-146,203
989785,1662,924,429,16704,-28,-3132,-1248,-131,234
989795,1661,923,427,16684,8,-3336,-1264,-45,311
989805,1662,923,429,16672,-40,-3160,-1280,-46,294
989815,1660,923,429,16612,-12,-3072,-1280,-81,225
989825,1663,923,430,16552,0,-3084,-1264,-72,161
989835,1671,924,431,16664,84,-3120,-1248,-37,155
989845,1661,923,430,16628,56,-3308,-1280,-83,225
989855,1661,925,483,16576,88,-2924,-1280,-136,346
989865,1659,923,428,16632,76,-3088,-1280,-41,268
989875,1663,925,431,16624,-4,-3064,-1264,15,139
989885,1661,924,429,16724,-40,-3100,-1280,-91,152
989895,1662,921,430,16688,-44,-2956,-1248,-99,269
989905,1662,926,429,16536,124,-3148,-1280,85,245
989915,1663,923,429,16560,116,-3032,-1248,146,236
989925,1670,925,427,16624,260,-3236,-1280,2,288
989935,1660,921,429,16568,240,-3220,-1280,-221,243
989945,1660,924,430,16584,160,-2908,-1280,-202,131
989955,1661,919,429,16620,168,-2864,-1248,-126,155
989965,1661,923,429,16548,144,-2964,-1280,-89,247
989975,1661,923,419,16700,220,-2960,-1264,59,322
989985,1661,924,429,16580,228,-3180,-1248,13,301
989995,1659,925,428,16548,184,-3292,-1248,-86,241
990005,1662,923,429,16448,320,-3080,-1264,-177,157
990015,1669,923,428,16620,260,-3264,-1248,-290,160
990025,1661,923,427,16672,136,-2976,-1280,-247,204
990035,1661,924,429,16628,32,-2972,-1280,-154,282
990045,1641,1002,428,16644,80,-3092,-1248,-190,314
990055,1661,921,377,16632,152,-2996,-1248,-249,244
990065,1663,921,427,16612,60,-3040,-1280,-146,175
990075,1663,927,429,16596,24,-2864,-1248,-80,177
990085,1661,924,431,16688,32,-2992,-1216,-175,206
990095,1661,923,431,16500,4,-3160,-1248,-281,165
990105,1662,923,430,16512,-128,-3004,-1264,-127,109
990115,1661,923,429,16480,-68,-3016,-1280,178,82
990125,1662,923,429,16576,252,-3108,-1248,304,219
990135,1662,868,427,16616,368,-2932,-1296,74,326
990145,1661,923,427,16600,352,-3108,-1248,-369,331
990155,1661,919,429,16520,168,-3260,-1264,-754,27
990165,1662,923,430,16596,-44,-3032,-1248,-661,-182
990175,1661,925,427,16660,-32,-3056,-1312,-36,-51
990185,1660,923,430,16820,112,-3312,-1248,183,235
990195,1659,924,429,16596,160,-3400,-1248,90,427
990205,1661,925,431,16568,40,-3116,-1280,-75,382
990215,1660,923,429,16420,68,-3192,-1248,-159,40
990225,1661,921,427,16616,116,-2972,-1248,67,-28
990235,1661,924,429,16684,156,-3500,-1264,34,73
990245,1659,925,430,16584,168,-3404,-1248,-220,254
990255,1662,922,431,16612,152,-3164,-1312,-126,364
990265,1661,922,429,16512,172,-3032,-1248,164,227
990275,1660,916,428,16728,304,-3184,-1248,122,148
990285,1659,923,427,16584,340,-3272,-1264,-197,206
990295,1659,926,429,16612,532,-3400,-1280,-281,353
990305,1661,923,429,16604,384,-3348,-1248,-472,329
990315,1661,924,431,16536,28,-3356,-1280,-942,317
990325,1631,919,435,16524,-344,-3180,-1312,-960,316
990335,1660,922,431,16736,-324,-2820,-1264,-480,235
990345,1662,923,435,16904,-640,-3252,-1280,-523,242
990355,1661,921,431,16772,-940,-3020,-1280,-1124,481
990365,1661,921,429,16560,-1056,-3104,-1264,-1023,488
990375,1660,921,426,16468,-976,-3440,-1248,-215,246
990385,1662,923,427,16572,-664,-3428,-1232,598,171
990395,1661,925,383,16624,-224,-3896,-1280,643,383
990405,1661,923,429,16700,212,-3948,-1248,216,784
990415,1661,821,429,16656,200,-3856,-1264,-225,823
990425,1657,925,427,16576,116,-3580,-1264,-644,743
990435,1662,923,429,16588,-160,-3592,-1264,-978,624
990445,1661,922,427,16656,-368,-3176,-1248,-821,599
990455,1660,923,427,16764,-580,-3112,-1248,-316,749
990465,1663,923,427,16692,-296,-2844,-1264,171,1021
990475,1661,923,425,16524,-108,-3128,-1264,260,1350
990485,1661,923,429,16324,-76,-3156,-1232,108,1080
990495,1678,923,428,16452,-20,-3156,-1280,-65,952
990505,1660,924,427,16520,-168,-3288,-1280,-199,849
990515,1662,921,436,16504,-440,-3536,-1296,-154,720
990525,1660,924,426,16544,-616,-3180,-1232,181,846
990535,1661,923,429,16692,-352,-3476,-1264,592,1033
990545,1661,924,429,16828,-232,-3376,-1264,922,1225
990555,1660,920,429,16824,-140,-3276,-1248,778,1487
990565,1659,923,430,16612,124,-3388,-1232,595,1569
990575,1661,916,431,16500,4,-3288,-1280,495,1387
990585,1661,923,429,16728,-320,-3100,-1248,270,1350
990595,1661,904,428,16756,-428,-3292,-1264,212,1352
990605,1657,923,430,16720,-772,-3368,-1232,412,1292
990615,1660,927,434,16692,-1148,-3356,-1232,457,1274
990625,1661,923,435,16716,-1652,-3300,-1264,341,1462
990635,1670,925,429,16800,-2356,-3104,-1248,293,1548
990645,1661,923,424,17068,-2220,-2404,-1232,286,1508
990655,1661,931,431,17164,-1916,-2652,-1248,497,1368
990665,1661,923,431,17544,-2300,-2964,-1296,180,1083
990675,1662,922,427,17668,-2436,-2440,-1264,-83,929
990685,1659,925,435,17632,-2096,-2788,-1280,340,863
990695,1659,923,435,18116,-2280,-3072,-1248,358,891
990705,1661,923,439,18508,-2356,-3648,-1280,-510,886
990715,1657,923,436,19140,-2240,-3996,-1264,-1693,408
990725,1641,937,436,20352,-956,-2724,-1264,-2173,-84
990735,1671,919,436,21988,-2312,-3932,-1248,-3481,-333
990745,1660,921,442,22304,-2056,-2796,-1264,-8206,1022
990755,1663,922,391,22072,-1456,-4840,-1280,-9611,956
990765,1661,921,407,21148,-1988,-6328,-1264,-8082,497
990775,1659,914,412,22932,-3204,-6140,-1264,-10311,1544
990785,1661,891,424,24200,-3740,-2860,-1312,-13633,4275
990795,1673,957,419,25104,-3740,-1984,-1248,-13318,6311
990805,1669,924,439,22516,-4444,-4708,-1248,-9156,6619
990815,1663,921,425,20900,-5332,-1588,-1280,-5073,7839
990825,1661,921,397,21496,-2072,916,-1232,337,8754
990835,1669,921,421,21068,1244,-1500,-1248,3056,7385
990845,1659,922,413,20664,5332,-3728,-1248,4219,4345
990855,1659,921,407,21412,8500,-3964,-1280,3458,1824
990865,1661,923,413,23292,10860,-4080,-1248,331,1170
990875,1669,923,414,23908,12300,-5144,-1264,-4752,1811
990885,1669,927,444,22484,11740,-6404,-1264,-9145,2845
990895,1659,923,460,21488,10128,-4452,-1264,-12182,3913
990905,1659,923,447,20576,7984,-788,-1280,-13545,6240
990915,1660,925,427,20224,7364,2548,-1248,-11621,8400
990925,1637,924,414,19204,7268,2880,-1232,-7015,8823
990935,1660,925,411,18432,7676,2272,-1264,-1951,7959
990945,1659,923,429,17996,8204,1628,-1232,1588,6881
990955,1660,926,437,17856,8316,408,-1296,2891,5638
990965,1660,925,435,17220,8088,660,-1280,2500,5151
990975,1657,923,423,16372,8964,3064,-1248,3718,5727
990985,1657,923,425,15560,8948,3040,-1264,7021,6662
990995,1661,928,427,14920,9040,2592,-1264,9992,6883
991005,1660,924,425,14092,9552,1248,-1296,11128,6661
991015,1659,924,424,13776,10088,328,-1248,10350,5845
991025,1657,923,436,12808,10332,-1052,-1264,9123,4400
991035,1624,922,436,11980,10532,208,-1280,7468,3637
991045,1659,948,427,11668,10416,1104,-1264,7399,2108
991055,1651,922,435,11980,10436,236,-1264,6922,1267
991065,1653,921,431,12148,10828,740,-1280,5979,1074
991075,1651,922,435,12132,11336,452,-1264,5906,556
991085,1661,923,431,12236,10812,12,-1264,5299,358
991095,1657,921,429,11948,10484,592,-1264,4359,281
991105,1657,920,416,12032,10024,740,-1264,3868,-781
991115,1657,921,413,11684,9360,576,-1280,4623,-2118
991125,1659,921,419,12072,9540,-284,-1264,5452,-3269
991135,1664,923,414,12584,10096,-924,-1264,5372,-3743
991145,1659,921,415,12300,9776,-1584,-1248,4815,-3007
991155,1663,923,422,11344,8904,-1112,-1232,4204,-2082
991165,1660,921,413,10860,7776,-1088,-1248,4249,-2217
991175,1662,920,415,10024,7888,-412,-1280,5139,-2028
991185,1652,920,415,9524,7928,-1016,-1280,6209,-1755
991195,1670,923,413,9780,7960,-2356,-1248,5772,-2320
991205,1671,923,420,9864,7640,-1264,-1264,4687,-2211
991215,1675,923,421,9540,7196,-800,-1280,4622,-1121
991225,1663,923,424,9724,6320,-1764,-1280,4706,-320
991235,1662,923,427,9432,5672,-1648,-1280,3839,281
991245,1661,923,431,9308,4812,-1328,-1248,3568,533
991255,1661,923,436,9708,4968,-1168,-1280,3713,503
991265,1671,923,436,10244,5160,-1804,-1280,4488,538
991275,1672,921,432,9784,4648,-2816,-1280,4554,1495
991285,1659,921,437,11416,5760,-3108,-1232,2864,312
991295,1659,917,437,10008,5608,-1096,-1248,1840,2145
991305,1663,922,435,9900,5124,-2336,-1248,1443,3220
991315,1661,919,434,9656,5100,-2008,-1280,228,3594
991325,1660,921,431,9896,4604,-1864,-1280,-869,3018
991335,1660,926,429,10260,3772,-1620,-1296,-1537,1964
991345,1663,921,428,10952,3588,-740,-1248,-1534,1038
991355,1661,921,435,10900,3836,364,-1280,-863,867
991365,1660,915,428,10628,3828,368,-1248,-562,1583
991375,1659,921,429,10480,3016,-568,-1280,-1710,2830
991385,1657,923,427,10904,2044,-460,-1264,-2682,3254
991395,1661,923,429,11884,1964,284,-1248,-2391,2428
991405,1663,923,423,12376,2336,1168,-1248,-401,493
991415,1661,923,428,12968,2236,464,-1296,1873,-1484
991425,1701,922,428,13024,2132,-132,-1280,1773,-2024
991435,1661,927,427,13912,2664,528,-1264,777,-1896
991445,1659,924,427,13704,2832,272,-1232,489,-1514
991455,1660,923,425,13604,3620,-104,-1248,1458,-1492
991465,1660,923,426,13172,2976,-2108,-1264,1954,-1970
991475,1660,923,420,14008,2368,-3420,-1264,563,-2647
991485,1689,924,427,14968,1236,-3648,-1296,-1710,-3281
991495,1661,923,431,15172,776,-1604,-1232,-2790,-2722
991505,1659,935,437,15156,996,356,-1280,-1904,-808
991515,1663,923,431,14548,1368,1652,-1264,499,1494
991525,1661,924,437,13480,1800,712,-1296,2884,2640
991535,1673,927,427,12464,1768,-1096,-1264,3745,2047
991545,1663,925,425,11652,1724,-2592,-1232,3169,159
991555,1661,924,423,11216,1636,-3292,-1248,1981,-1888
991565,1661,921,424,11716,1460,-2976,-1296,612,-3300
991575,1661,921,423,12664,1160,-2852,-1232,15,-4067
991585,1653,924,422,13344,716,-2936,-1264,14,-3849
991595,1661,925,429,13632,380,-2800,-1264,72,-2260
991605,1671,923,407,16624,-1764,-2696,-1280,-405,-625
991615,1635,923,410,32767,-56,-7188,-1264,-1222,-11129
991625,1695,922,411,32767,-980,-10772,-1248,-606,-32768
991635,1663,924,448,32767,-4064,-11632,-1280,-3254,-32768
991645,1643,923,499,24060,-7892,-3024,-1296,-4614,-9460
991655,1653,923,461,14444,-6260,9080,-1312,2018,29637
991665,1677,847,379,6916,-2888,11540,-1312,8327,32767
991675,1663,923,410,8932,668,6100,-1312,12660,32767
991685,1677,931,428,9420,3784,-1452,-1280,16478,32767
991695,1671,931,396,2940,6440,-8932,-1296,12616,12450
991705,1657,921,429,13576,2720,-980,-1280,5555,-18629
991715,1656,919,425,14684,-144,-2916,-1280,1423,-21989
991725,1660,919,421,14844,72,-980,-1280,356,-20466
991735,1659,921,380,27620,1900,2840,-1280,-14027,-32768
991745,1671,921,452,25292,2180,12344,-1264,-1150,-28795
991755,1663,908,409,23700,1408,5792,-1248,9851,-14062
991765,1662,934,419,22852,3424,-1096,-1248,14534,1768
991775,1659,923,441,18928,3848,-4220,-1264,10388,14281
991785,1657,925,437,15276,4020,-4944,-1248,3902,18887
991795,1660,925,435,13640,5072,-3936,-1264,-1011,15889
991805,1663,923,415,12260,6784,-760,-1264,-2148,8179
991815,1709,924,421,10944,4888,-2588,-1232,-194,-1529
991825,1659,921,415,10228,3944,-2468,-1312,449,-8790
991835,1657,925,432,13660,4480,-596,-1280,1347,-12201
991845,1661,923,421,16572,6352,-1836,-1264,2738,-13219
991855,1661,921,413,17112,7088,-2736,-1264,3884,-10925
991865,1659,923,428,17508,8184,-2328,-1296,3052,-7268
991875,1677,923,438,19960,10112,-3028,-1296,108,-5910
991885,1659,925,430,18676,8676,-3564,-1280,-3990,-3469
991895,1659,922,431,15612,7592,-1676,-1296,-6088,509
991905,1655,923,396,15424,7292,-1276,-1296,-4183,1012
991915,1661,923,425,15168,6384,-3712,-1280,-1606,-2367
991925,1672,919,431,15036,6256,-5152,-1232,-77,-6819
991935,1663,913,426,15408,6996,-6260,-1312,1621,-10489
991945,1659,922,395,16000,7548,-7960,-1296,2312,-12118
991955,1653,923,425,17224,7704,-8892,-1296,1148,-11272
991965,1659,924,431,18680,7644,-8568,-1312,-678,-8442
991975,1661,921,438,18804,7088,-8248,-1264,-1413,-4848
991985,1661,923,428,17620,7100,-6844,-1248,-636,-547
991995,1660,924,425,16132,7268,-6180,-1280,1809,3013
992005,1659,924,422,15064,7016,-6348,-1264,3657,4809
992015,1661,924,426,15036,7372,-5884,-1280,4263,4800
992025,1661,923,425,15340,7920,-5328,-1248,3598,3676
992035,1662,921,425,15700,7848,-4940,-1280,2200,2332
992045,1672,924,423,16316,8048,-3812,-1248,813,1667
992055,1659,923,421,15760,6860,-3636,-1296,366,1395
992065,1661,923,423,15292,5744,-2196,-1296,48,2458
992075,1661,927,419,15364,6476,260,-1264,1755,3665
992085,1660,923,421,15500,6500,-788,-1280,4197,3186
992095,1659,921,425,15764,6620,-1180,-1280,3964,2097
992105,1659,923,435,15568,6864,-1480,-1296,2478,1504
992115,1659,921,425,15092,6996,-1436,-1264,2036,478
992125,1661,922,427,15068,7268,-592,-1296,2406,-174
992135,1661,920,422,15616,7656,-344,-1264,3113,-704
992145,1658,923,426,16260,7728,-1784,-1280,2879,-1916
992155,1657,921,433,16392,6752,-2988,-1264,812,-2569
992165,1661,921,437,16196,5644,-2572,-1264,-1180,-2469
992175,1661,925,427,16076,5244,-1240,-1296,-842,-2320
992185,1663,921,425,15736,5364,-1428,-1264,1671,-2276
992195,1660,921,424,15404,5780,-2344,-1280,4330,-2561
992205,1661,919,423,15488,6392,-4300,-1296,5316,-3175
992215,1659,921,425,15728,6512,-6432,-1280,3909,-3696
992225,1660,915,429,15840,6468,-6180,-1296,1623,-3533
992235,1659,921,435,15980,6724,-5912,-1264,1062,-2921
992245,1661,921,435,15772,6432,-6124,-1248,1959,-2563
992255,1661,923,429,15764,5620,-5756,-1296,2744,-2148
992265,1659,921,433,16068,5204,-5524,-1296,2381,-1297
992275,1683,928,427,16324,4816,-5120,-1280,1167,-337
992285,1654,933,429,16716,4036,-4252,-1232,358,321
992295,1659,927,419,16472,2932,-3728,-1280,-293,31
992305,1662,924,411,15716,3268,-1820,-1264,601,38
992315,1669,924,422,15264,3200,-2164,-1264,2888,69
992325,1659,923,409,15116,3208,-3312,-1280,4250,-845
992335,1659,885,421,15788,3828,-2928,-1280,4554,-1733
992345,1673,922,429,15956,3308,-3944,-1248,3349,-1811
992355,1657,925,425,16204,1884,-4684,-1296,256,-1697
992365,1659,911,429,16296,1504,-2452,-1264,-1834,-866
992375,1657,922,413,15776,1584,-2656,-1280,-880,-394
992385,1661,921,413,15236,980,-5556,-1248,-251,-730
992395,1659,924,419,15260,852,-6560,-1248,-1076,-1258
992405,1659,920,429,15360,1004,-5468,-1248,-1940,-731
992415,1659,923,428,15536,536,-4056,-1280,-1821,447
992425,1661,922,423,15396,-376,-5160,-1248,-1982,1127
992435,1660,922,422,14908,-1128,-6152,-1280,-2568,760
992445,1659,831,419,14668,-1192,-5760,-1280,-2927,429
992455,1663,922,446,15248,-1324,-5276,-1280,-2543,76
992465,1663,922,425,16024,-2012,-5264,-1264,-2850,-147
992475,1661,920,432,16388,-3120,-5224,-1248,-4314,-328
992485,1661,901,427,16672,-3816,-3608,-1296,-5763,301
992495,1653,923,421,16304,-3964,-2500,-1248,-5607,1248
992505,1663,923,423,15728,-4012,-4224,-1248,-4609,1506
992515,1657,921,426,16096,-4292,-5660,-1264,-4272,487
992525,1661,923,441,16340,-4212,-4144,-1264,-3604,-235
992535,1661,921,429,16528,-4344,-3516,-1264,-2707,-427
992545,1659,921,423,16924,-3860,-5360,-1264,-2357,-522
992555,1661,921,413,16960,-2680,-6036,-1248,-2155,-656
992565,1660,923,420,17172,-2616,-6784,-1296,-2302,-297
992575,1651,921,436,17872,-952,-4392,-1264,-2574,1037
992585,1673,920,444,15724,140,-3200,-1264,-1210,3579
992595,1661,927,415,13892,-256,-8448,-1264,-262,4306
992605,1659,923,410,15376,-376,-9096,-1280,-756,1679
992615,1659,931,418,14060,-260,-7028,-1264,-1092,-910
992625,1657,928,424,16520,-764,-2236,-1264,1060,-1543
992635,1659,923,424,17108,-852,-3744,-1264,100,-562
992645,1657,920,425,17872,-920,-3704,-1264,-1902,729
992655,1669,919,426,17776,-880,-3972,-1280,-3597,1702
992665,1657,920,424,17072,-1176,-4032,-1312,-4335,2387
992675,1657,920,427,16596,-704,-3404,-1280,-3549,2534
992685,1659,923,435,16288,-872,-3884,-1280,-1582,1898
992695,1661,923,421,16204,-664,-5784,-1264,69,478
992705,1657,923,414,16524,340,-7072,-1280,1162,-678
992715,1660,921,412,16708,1980,-6664,-1280,2298,-470
992725,1658,923,421,17024,2716,-5596,-1248,3160,915
992735,1659,915,427,17232,3480,-5060,-1248,2934,2587
992745,1658,923,431,16992,3876,-4060,-1264,1702,3749
992755,1659,923,429,16772,3604,-3388,-1280,-311,4542
992765,1661,923,429,16380,3064,-3328,-1280,-2958,4533
992775,1669,923,427,15800,2324,-3416,-1232,-5811,3708
992785,1662,920,431,15368,928,-4252,-1248,-7982,2108
992795,1660,923,431,15200,-48,-3972,-1232,-8420,136
992805,1659,920,421,15752,-732,-3052,-1312,-6901,-1093
992815,1661,923,423,16436,-1108,-2704,-1248,-4723,-954
992825,1661,922,425,16680,-1460,-3908,-1232,-3314,184
992835,1659,921,421,16720,-1496,-4096,-1248,-2952,1553
992845,1661,923,425,16428,-880,-2900,-1264,-2610,2456
992855,1663,925,419,15956,-524,-2916,-1248,-1825,2576
992865,1662,921,423,15664,-204,-3372,-1216,-1314,1757
992875,1659,922,423,15848,224,-3620,-1248,-1145,692
992885,1658,921,429,16256,780,-3412,-1264,-1035,119
992895,1659,923,428,16620,1396,-3840,-1264,-763,168
992905,1659,923,425,16932,2240,-4360,-1296,-680,627
992915,1659,923,426,16956,2456,-5024,-1248,-1121,948
992925,1661,923,426,16948,2640,-4488,-1264,-1759,1164
992935,1659,923,422,16612,2012,-3844,-1248,-2621,1320
992945,1659,923,427,16472,1100,-3304,-1264,-3958,1552
992955,1660,923,425,16096,408,-3236,-1232,-5008,1447
992965,1661,921,424,15980,-120,-2868,-1248,-4940,1015
992975,1660,924,419,16152,-412,-2736,-1264,-3850,485
992985,1660,921,419,16284,-408,-2528,-1264,-2531,253
992995,1661,920,421,16576,-152,-2612,-1248,-1340,554
993005,1659,923,425,16656,372,-3012,-1264,-536,997
993015,1661,922,429,16452,744,-3776,-1280,-243,1112
993025,1660,925,425,16300,1312,-3524,-1248,20,907
993035,1659,923,426,16324,1408,-3852,-1248,58,635
993045,1659,923,436,16220,1736,-4000,-1280,-178,336
993055,1639,923,426,16264,1420,-4240,-1200,-753,213
993065,1661,925,425,16512,1148,-3580,-1248,-1522,321
993075,1662,924,425,16516,1052,-3100,-1280,-1839,447
993085,1657,927,435,16336,760,-3076,-1264,-1682,518
993095,1660,925,425,16488,612,-2884,-1248,-1244,388
993105,1659,925,423,16440,368,-2560,-1280,-812,320
993115,1661,927,423,16360,180,-2668,-1280,-692,403
993125,1651,922,421,16292,372,-2760,-1248,-254,308
993135,1661,921,423,16336,316,-2776,-1280,203,277
993145,1661,895,421,16428,416,-3056,-1248,310,194
993155,1660,919,421,16384,596,-3240,-1280,178,209
993165,1661,921,423,16556,348,-3332,-1280,45,83
993175,1659,922,425,16532,104,-3388,-1248,-257,-78
993185,1659,923,423,16416,-140,-3820,-1232,-498,-178
993195,1659,903,423,16548,-96,-3324,-1248,-256,-4
993205,1659,919,424,16424,120,-3464,-1248,191,245
993215,1660,921,421,16520,232,-3556,-1232,104,366
993225,1660,917,425,16584,188,-3224,-1280,-418,566
993235,1661,922,426,16324,36,-3696,-1248,-995,608
993245,1663,923,425,16080,-364,-3924,-1248,-1495,326
993255,1660,924,421,16112,-756,-3736,-1248,-1661,37
993265,1659,926,427,16232,-1264,-3876,-1280,-1609,-85
993275,1660,924,425,16392,-1664,-3636,-1248,-1428,38
993285,1661,923,428,16548,-1844,-3280,-1280,-1196,331
993295,1679,920,427,16388,-2088,-3176,-1280,-947,576
993305,1657,917,427,16216,-2308,-3012,-1248,-477,753
993315,1661,915,427,16372,-2308,-2812,-1264,35,560
993325,1661,919,429,16448,-2224,-3148,-1248,590,249
993335,1660,918,427,16584,-1808,-3176,-1264,1133,97
993345,1659,907,424,16756,-1052,-3192,-1248,1696,180
993355,1660,920,425,16772,-296,-3644,-1248,1981,528
993365,1660,921,427,16684,472,-4048,-1264,1641,738
993375,1663,923,423,16536,940,-3852,-1232,1107,722
993385,1660,925,423,16472,1108,-4144,-1296,519,517
993395,1659,925,424,16524,980,-4160,-1280,-306,279
993405,1659,925,425,16552,692,-3236,-1280,-933,307
993415,1661,920,423,16740,472,-3028,-1264,-1164,442
993425,1659,921,424,16556,0,-2844,-1296,-1163,466
993435,1661,915,424,16540,-216,-2264,-1264,-986,384
993445,1661,919,421,16516,-308,-2296,-1232,-504,188
993455,1659,923,423,16572,-312,-2660,-1248,304,-116
993465,1659,921,421,16640,76,-3080,-1232,1094,-225
993475,1662,923,425,16556,636,-3292,-1264,1579,43
993485,1659,923,423,16664,996,-3852,-1264,1378,246
993495,1659,924,423,16452,1192,-4080,-1232,578,295
993505,1659,940,424,16536,1224,-4240,-1264,-318,209
993515,1660,922,423,16440,952,-3852,-1264,-925,16
993525,1660,981,427,16556,480,-3856,-1232,-1230,-89
993535,1660,923,425,16580,-12,-3464,-1248,-1342,-45
993545,1660,923,427,16756,-504,-2908,-1232,-1075,108
993555,1659,921,420,16740,-512,-2640,-1232,-537,242
993565,1661,927,421,16540,-348,-2728,-1232,125,303
993575,1637,919,473,16500,-300,-3260,-1264,404,171
993585,1663,921,425,16536,24,-3244,-1280,479,-23
993595,1658,921,422,16472,352,-3360,-1264,619,-145
993605,1659,923,424,16552,588,-3980,-1232,440,-79
993615,1660,921,423,16544,748,-4144,-1296,5,132
993625,1660,923,424,16520,472,-3996,-1264,-452,234
993635,1659,953,423,16504,160,-3548,-1280,-790,263
993645,1659,920,424,16532,396,-3252,-1232,-706,165
993655,1660,921,423,16540,160,-3448,-1264,-564,37
993665,1661,923,423,16684,-108,-3332,-1248,-718,28
993675,1659,923,454,16616,-328,-3232,-1264,-702,157
993685,1659,922,420,16516,-452,-3556,-1216,-510,218
993695,1660,921,424,16496,-188,-3180,-1232,-143,136
993705,1659,921,471,16560,-8,-3096,-1232,298,183
993715,1659,924,425,16504,100,-3672,-1248,130,271
993725,1659,919,424,16432,164,-3752,-1248,-436,182
993735,1659,935,425,16420,-32,-3652,-1280,-569,23
993745,1659,923,411,16560,-220,-3536,-1280,-330,-147
993755,1659,921,421,16680,76,-3436,-1232,132,-48
993765,1659,922,425,16780,272,-3456,-1248,409,233
993775,1660,923,426,16628,276,-3688,-1248,73,466
993785,1660,923,424,16524,120,-3292,-1248,-384,450
993795,1661,923,422,16296,-32,-3232,-1248,-455,164
993805,1659,923,423,16392,-48,-3348,-1232,-126,-168
993815,1659,922,421,16604,40,-3168,-1280,179,-207
993825,1661,921,421,16736,144,-3052,-1264,474,126
993835,1660,920,428,16588,252,-3296,-1232,577,389
993845,1660,922,423,16364,244,-3696,-1248,473,292
993855,1658,921,423,16352,372,-3488,-1232,475,23
993865,1659,921,423,16400,356,-3708,-1248,488,-201
993875,1661,922,423,16600,508,-3664,-1264,382,-200
993885,1659,923,425,16736,640,-3576,-1232,336,31
993895,1659,923,427,16652,404,-3476,-1280,219,224
993905,1659,922,425,16568,372,-3468,-1248,-76,307
993915,1661,921,424,16484,168,-3364,-1280,-232,189
993925,1661,942,424,16512,48,-3336,-1248,-161,6
993935,1660,920,409,16556,120,-3364,-1296,18,0
993945,1659,920,423,16552,260,-3552,-1280,54,87
993955,1659,921,455,16468,44,-3536,-1248,-143,226
993965,1659,921,421,16464,60,-3480,-1248,-219,191
993975,1659,921,425,16440,-12,-3520,-1248,45,-12
993985,1659,922,423,16596,140,-3364,-1280,271,-31
993995,1659,923,431,16628,328,-3692,-1216,300,146
994005,1659,923,424,16512,284,-3676,-1264,192,192
994015,1659,859,422,16504,244,-3256,-1264,114,206
994025,1660,923,421,16404,276,-3432,-1280,51,100
994035,1659,921,424,16404,320,-3504,-1248,137,-46
994045,1660,923,423,16536,276,-3472,-1280,166,-28
994055,1661,923,421,16676,168,-3288,-1248,118,67
994065,1660,921,428,16608,240,-3416,-1232,139,74
994075,1659,904,423,16524,244,-3296,-1248,228,115
994085,1659,922,425,16512,240,-3608,-1248,212,40
994095,1660,923,421,16516,292,-3648,-1264,47,67
994105,1643,921,421,16512,232,-3796,-1216,-31,64
994115,1659,922,422,16452,192,-3660,-1280,3,39
994125,1661,922,421,16576,152,-3720,-1280,-60,36
994135,1661,921,422,16508,84,-3340,-1232,-104,114
994145,1658,921,422,16568,32,-3408,-1264,-57,130
994155,1659,923,425,16552,16,-3368,-1248,-76,18
994165,1660,922,424,16552,76,-3380,-1248,72,22
994175,1659,923,424,16452,112,-3436,-1248,112,106
994185,1661,927,423,16460,12,-3648,-1248,-7,131
994195,1660,921,423,16416,-44,-3600,-1264,-105,78
994205,1660,922,423,16484,-60,-3580,-1248,-137,36
994215,1660,921,421,16472,144,-3576,-1248,-3,-40
994225,1660,925,424,16492,-28,-3672,-1248,23,-25
994235,1662,922,424,16596,140,-3636,-1280,-85,70
994245,1660,921,423,16508,112,-3760,-1264,-145,188
994255,1659,923,423,16484,-44,-3724,-1280,-228,111
994265,1659,921,421,16412,-44,-3680,-1232,-254,69
994275,1663,924,421,16440,84,-3300,-1264,-156,128
994285,1659,921,423,16556,128,-3464,-1280,-239,163
994295,1659,921,425,16444,8,-3692,-1248,-416,127
994305,1659,921,423,16512,-88,-3540,-1248,-461,-33
994315,1659,921,411,16556,-352,-3668,-1264,-336,-148
994325,1660,922,425,16564,-320,-3736,-1264,11,-122
994335,1659,922,421,16652,-176,-3444,-1248,396,34
994345,1659,921,423,16680,76,-3500,-1280,454,316
994355,1661,923,423,16528,116,-3904,-1248,127,362
994365,1660,923,422,16360,52,-3816,-1280,-315,159
994375,1659,923,423,16440,-100,-3664,-1264,-325,-61
994385,1659,921,422,16556,-224,-3744,-1280,-30,-216
994395,1659,922,420,16580,-260,-3868,-1280,162,-55
994405,1659,923,423,16768,-176,-3808,-1248,154,326
994415,1659,923,423,16472,-148,-3660,-1248,150,560
994425,1659,923,421,16428,64,-3756,-1280,84,530
994435,1659,923,427,16284,148,-3736,-1248,16,211
994445,1660,921,423,16424,236,-3668,-1248,-54,-2
994455,1659,922,421,16584,232,-3440,-1280,-167,88
994465,1659,922,423,16724,180,-3624,-1248,-179,263
994475,1659,921,423,16564,68,-3712,-1264,-213,331
994485,1657,920,421,16572,96,-3676,-1248,-152,286
994495,1658,921,424,16328,96,-3772,-1248,-50,212
994505,1663,921,423,16572,140,-3688,-1280,-6,-3
994515,1653,921,421,16584,144,-3608,-1248,-63,205
994525,1659,923,423,16560,104,-3604,-1280,-57,244
994535,1659,923,423,16496,40,-3600,-1248,-70,208
994545,1658,921,424,16472,144,-3572,-1232,-65,211
994555,1659,919,421,16452,204,-3504,-1232,-64,291
994565,1659,923,422,16520,184,-3676,-1248,-251,256
994575,1657,913,420,16444,72,-3476,-1264,-498,242
994585,1659,920,423,16500,-216,-3456,-1248,-595,139
994595,1659,920,425,16624,-368,-3332,-1264,-197,36
994605,1661,922,447,16440,-124,-3684,-1232,287,128
994615,1657,943,424,16584,68,-3760,-1248,382,299
994625,1659,922,425,16588,240,-3792,-1248,258,375
994635,1657,921,425,16344,276,-3856,-1248,14,244
994645,1659,922,411,16564,112,-3628,-1264,-462,97
994655,1660,922,420,16636,-116,-3544,-1232,-767,124
994665,1657,922,420,16492,-32,-3564,-1280,-283,99
994675,1655,922,420,16568,-128,-3488,-1280,271,183
994685,1659,921,421,16528,16,-3676,-1248,300,416
994695,1660,921,423,16396,160,-4000,-1280,147,480
994705,1659,921,423,16408,276,-3708,-1264,76,402
994715,1663,921,426,16472,320,-3624,-1248,-43,277
994725,1657,921,425,16468,572,-3776,-1264,-256,201
994735,1660,921,421,16516,400,-3672,-1264,-372,261
994745,1657,919,419,16500,340,-3712,-1248,-479,341
994755,1659,987,416,16472,232,-3560,-1280,-513,372
994765,1659,923,419,16448,148,-3708,-1248,-372,353
994775,1659,921,419,16512,208,-3440,-1232,-83,343
994785,1659,920,419,16648,540,-3568,-1296,24,384
994795,1661,921,421,16532,400,-3552,-1248,-128,423
994805,1683,923,423,16484,472,-3668,-1280,-512,486
994815,1657,921,424,16368,544,-3536,-1216,-410,415
994825,1657,922,425,16380,452,-3700,-1280,-149,312
994835,1660,869,423,16556,512,-3440,-1280,-171,293
994845,1657,921,405,16460,500,-3568,-1248,-125,394
994855,1659,920,419,16540,648,-3436,-1280,38,452
994865,1659,923,419,16508,580,-3472,-1264,6,445
994875,1659,933,422,16420,536,-3552,-1248,-255,452
994885,1659,922,425,16440,648,-3352,-1280,-425,379
994895,1660,920,419,16480,628,-3408,-1248,-231,331
994905,1659,921,424,16468,648,-3504,-1280,-94,316
994915,1653,921,422,16624,544,-3580,-1296,-205,318
994925,1659,923,421,16596,600,-3316,-1280,-154,466
994935,1659,923,408,16496,628,-3676,-1248,-112,483
994945,1660,921,420,16432,504,-3656,-1248,-338,478
994955,1625,922,422,16496,548,-3460,-1312,-452,436
994965,1659,921,420,16448,420,-3424,-1248,-354,330
994975,1659,921,425,16680,232,-3568,-1280,-200,338
994985,1659,921,424,16564,372,-3368,-1280,-79,389
994995,1655,919,419,16680,396,-3448,-1248,-157,496
995005,1659,921,423,16556,424,-3452,-1280,-309,562
995015,1657,920,422,16528,332,-3472,-1264,-361,564
995025,1659,921,421,16360,316,-3700,-1248,-364,428
995035,1647,922,421,16520,248,-3420,-1280,-335,326
995045,1659,923,425,16664,368,-3280,-1248,-271,453
995055,1657,919,423,16640,320,-3416,-1280,-208,556
995065,1657,922,421,16624,164,-3476,-1264,-196,462
995075,1649,921,420,16576,172,-3312,-1280,-233,450
995085,1659,923,421,16404,204,-3504,-1280,-111,486
995095,1657,921,421,16460,324,-3492,-1280,-3,497
995105,1659,921,428,16472,428,-3460,-1248,-21,498
995115,1660,921,431,16536,540,-3424,-1264,-114,474
995125,1659,921,423,16472,560,-3284,-1280,-188,457
995135,1658,921,423,16496,492,-3140,-1280,-255,476
995145,1660,895,422,16568,416,-3084,-1280,-282,464
995155,1659,935,421,16448,444,-3292,-1280,-114,400
995165,1659,909,421,16392,352,-3100,-1296,76,346
995175,1659,921,419,16508,492,-3284,-1248,114,413
995185,1659,922,423,16500,688,-3408,-1280,195,448
995195,1660,923,418,16488,724,-3348,-1264,239,447
995205,1659,921,421,16576,832,-3448,-1248,141,435
995215,1659,921,419,16580,692,-3324,-1264,25,392
995225,1660,921,423,16520,708,-3252,-1248,-74,364
995235,1659,923,424,16408,680,-3504,-1280,-186,270
995245,1660,921,423,16596,628,-3508,-1264,-267,325
995255,1659,921,423,16516,436,-3352,-1248,-251,350
995265,1656,920,419,16568,672,-3324,-1248,-54,316
995275,1660,921,421,16568,552,-3292,-1248,126,364
995285,1659,958,421,16552,652,-3256,-1280,-31,424
995295,1659,920,422,16496,640,-3312,-1312,-191,470
995305,1661,921,422,16444,680,-3368,-1280,-244,363
995315,1659,921,420,16564,592,-3420,-1280,-356,268
995325,1659,921,423,16688,416,-3248,-1248,-389,282
995335,1659,921,415,16576,488,-3196,-1312,-332,360
995345,1658,921,419,16596,360,-3284,-1264,-342,379
995355,1659,922,419,16480,332,-3212,-1280,-338,385
995365,1659,921,420,16480,376,-3204,-1248,-199,353
995375,1657,921,423,16500,304,-3304,-1248,-57,262
995385,1659,922,420,16720,404,-3152,-1280,-50,293
995395,1657,921,422,16596,280,-3056,-1296,-87,391
995405,1661,922,423,16664,380,-3248,-1248,-184,412
995415,1657,922,425,16468,472,-3368,-1280,-227,387
995425,1660,921,422,16468,388,-3268,-1248,-204,275
995435,1659,921,423,16512,356,-3324,-1248,-83,166
995445,1659,921,421,16664,384,-3452,-1264,58,175
995455,1661,921,445,16636,416,-3176,-1280,93,339
995465,1658,923,421,16508,476,-3160,-1248,41,477
995475,1657,922,421,16512,516,-3220,-1232,-123,400
995485,1659,921,423,16424,428,-3156,-1248,-351,253
995495,1659,923,421,16420,464,-3212,-1264,-382,89
995505,1659,922,421,16632,388,-3324,-1280,-162,86
995515,1658,922,420,16696,460,-3128,-1280,-5,257
995525,1659,905,421,16716,540,-3152,-1264,70,386
995535,1659,922,421,16476,500,-3348,-1248,-71,420
995545,1659,922,414,16448,504,-3460,-1280,-186,293
995555,1659,934,421,16556,544,-3292,-1248,-240,175
995565,1659,921,419,16508,420,-3328,-1280,-276,169
995575,1658,925,422,16736,312,-3468,-1232,-290,226
995585,1679,921,421,16676,404,-3252,-1280,-123,387
995595,1659,921,420,16528,464,-3224,-1280,-78,453
995605,1659,921,420,16576,328,-3284,-1248,-159,380
995615,1657,921,421,16604,300,-3124,-1280,-241,258
995625,1659,922,406,16504,284,-3260,-1248,-298,218
995635,1659,924,421,16596,252,-3072,-1280,-195,235
995645,1659,923,422,16472,300,-3264,-1248,42,256
995655,1670,921,421,16432,432,-3508,-1248,60,296
995665,1659,915,419,16468,544,-3144,-1280,74,334
995675,1658,918,421,16628,664,-3088,-1232,119,316
995685,1659,923,415,16592,568,-3384,-1280,-13,309
995695,1659,922,419,16576,512,-3184,-1248,-227,313
995705,1662,923,413,16572,428,-3384,-1280,-351,326
995715,1659,923,422,16556,328,-3164,-1248,-340,120
995725,1659,921,360,16500,380,-3060,-1296,-83,182
995735,1659,921,421,16484,548,-3256,-1248,189,321
995745,1659,921,422,16456,500,-3364,-1280,91,365
995755,1656,920,421,16620,356,-3216,-1248,-258,335
995765,1659,923,422,16596,472,-3208,-1280,-228,191
995775,1659,923,423,16652,356,-3244,-1264,-84,95
995785,1659,921,419,16668,264,-3204,-1280,-118,196
995795,1658,921,419,16576,404,-3144,-1248,-120,305
995805,1659,922,412,16480,404,-3304,-1264,22,327
995815,1659,923,419,16596,472,-3360,-1280,134,230
995825,1659,920,419,16600,556,-3296,-1264,150,147
995835,1658,923,422,16644,744,-3416,-1248,69,192
995845,1659,921,422,16680,772,-3468,-1248,-266,336
995855,1658,923,423,16524,664,-3428,-1232,-364,341
995865,1657,920,419,16460,568,-3132,-1280,-426,296
995875,1657,921,418,16472,444,-3092,-1280,-276,232
995885,1659,888,423,16556,500,-3400,-1312,-207,199
995895,1659,922,415,16604,572,-3124,-1280,-188,232
995905,1656,920,415,16612,604,-3132,-1264,-153,276
995915,1657,922,420,16604,628,-3184,-1248,-166,351
995925,1659,921,439,16524,412,-3160,-1280,-129,264
995935,1658,921,421,16528,432,-3416,-1280,-310,148
995945,1657,921,421,16624,288,-3216,-1280,-476,119
995955,1657,920,419,16504,352,-3172,-1280,-258,184
995965,1659,902,421,16572,428,-3144,-1248,33,316
995975,1684,921,421,16556,608,-3412,-1248,-9,394
995985,1658,919,423,16536,644,-3368,-1248,-200,385
995995,1657,922,422,16652,620,-3052,-1280,-220,275
996005,1659,921,420,16584,544,-3212,-1264,-237,161
996015,1659,920,414,16528,448,-2972,-1248,-332,161
996025,1659,921,421,16524,456,-3156,-1280,-250,226
996035,1639,922,419,16616,524,-3256,-1280,-167,407
996045,1659,921,421,16552,580,-3100,-1248,-232,443
996055,1657,921,419,16448,760,-3304,-1264,-129,262
996065,1657,922,420,16568,680,-3372,-1280,-130,150
996075,1657,922,419,16692,680,-3168,-1280,-288,237
996085,1655,921,421,16512,700,-3176,-1280,-183,299
996095,1658,921,415,16600,588,-3084,-1248,-52,259
996105,1661,923,421,16584,652,-3176,-1264,-112,219
996115,1659,922,415,16616,660,-3136,-1280,-44,54
996125,1659,922,421,16632,812,-3156,-1248,190,131
996135,1658,922,424,16704,876,-3264,-1264,218,246
996145,1658,920,420,16552,936,-3256,-1280,-46,319
996155,1657,921,419,16516,772,-3512,-1264,-407,236
996165,1659,879,419,16488,672,-3096,-1248,-477,152
996175,1659,921,415,16484,636,-3020,-1248,-157,100
996185,1658,921,423,16688,808,-3248,-1264,88,149
996195,1657,921,421,16672,872,-3028,-1280,171,302
996205,1661,921,429,16684,1024,-2940,-1280,2,359
996215,1658,921,415,16532,996,-2972,-1248,-134,263
996225,1659,923,415,16388,908,-3352,-1248,-335,218
996235,1659,921,420,16444,872,-3324,-1296,-404,96
996245,1660,923,416,16516,728,-3120,-1216,-410,79
996255,1643,921,419,16504,676,-3328,-1280,-474,232
996265,1655,921,415,16372,628,-3132,-1280,-351,273
996275,1657,922,414,16472,556,-3244,-1248,-224,205
996285,1658,921,421,16536,456,-3212,-1248,-299,191
996295,1659,921,416,16536,492,-3112,-1280,-328,132
996305,1657,921,415,16660,404,-3004,-1216,-101,177
996315,1658,957,415,16596,508,-3188,-1248,-7,236
996325,1659,919,421,16520,632,-3232,-1280,-81,279
996335,1624,921,423,16536,744,-3288,-1264,-360,320
996345,1658,921,420,16488,700,-3216,-1280,-419,294
996355,1659,923,471,16492,588,-3144,-1248,-276,213
996365,1659,916,421,16644,372,-3224,-1216,-353,121
996375,1657,921,420,16616,384,-3120,-1248,-291,125
996385,1658,921,420,16656,528,-3092,-1264,172,164
996395,1660,921,421,16628,584,-3256,-1248,419,275
996405,1659,922,413,16552,704,-3340,-1248,201,378
996415,1657,923,416,16524,720,-3440,-1248,-113,283
996425,1659,909,411,16488,680,-3132,-1280,-296,199
996435,1657,921,416,16608,696,-2960,-1264,-224,115
996445,1658,921,415,16476,564,-3144,-1248,-151,96
996455,1657,921,413,16632,440,-3024,-1280,-111,197
996465,1658,920,415,16652,396,-3180,-1280,-3,290
996475,1659,923,419,16484,584,-3224,-1248,155,248
996485,1659,922,416,16624,652,-3144,-1232,282,151
996495,1657,921,420,16640,852,-3212,-1280,122,168
996505,1657,921,421,16584,804,-3312,-1248,-97,137
996515,1658,923,419,16688,572,-3212,-1264,-276,231
996525,1659,922,421,16440,504,-3248,-1248,-241,153
996535,1657,921,416,16500,468,-3032,-1248,-79,159
996545,1657,922,415,16552,524,-3140,-1248,31,191
996555,1659,921,415,16636,588,-3264,-1248,17,229
996565,1657,923,415,16616,528,-3220,-1264,-5,246
996575,1659,921,420,16544,692,-3196,-1248,3,250
996585,1659,922,415,16620,688,-3084,-1248,-69,208
996595,1657,921,416,16628,580,-3232,-1248,-262,200
996605,1658,921,419,16616,648,-3096,-1280,-184,166
996615,1659,921,420,16596,576,-3124,-1248,-3,148
996625,1659,921,420,16516,532,-3208,-1248,-44,197
996635,1659,919,419,16544,684,-3276,-1248,-141,203
996645,1658,925,414,16516,700,-3384,-1312,-81,155
996655,1657,922,415,16616,680,-3220,-1248,-109,264
996665,1657,921,419,16620,540,-3204,-1264,-280,427
996675,1658,921,413,16740,636,-3256,-1248,-301,316
996685,1661,920,416,16568,596,-3056,-1248,-37,98
996695,1657,922,421,16792,628,-3160,-1248,56,170
996705,1659,921,420,16748,656,-3232,-1280,-132,301
996715,1658,921,423,16540,476,-3008,-1264,-221,341
996725,1658,920,424,16476,484,-3212,-1280,-113,273
996735,1658,920,421,16504,544,-3240,-1248,-30,189
996745,1659,921,421,16628,532,-3332,-1280,-50,192
996755,1659,942,421,16592,484,-3156,-1280,-17,286
996765,1659,922,419,16596,472,-3304,-1232,-60,342
996775,1658,920,415,16556,460,-3172,-1248,-134,375
996785,1658,921,415,16536,492,-3104,-1280,-154,370
996795,1650,921,415,16448,476,-3008,-1280,-55,296
996805,1657,915,415,16504,496,-3160,-1248,13,284
996815,1657,921,418,16628,652,-3020,-1264,71,385
996825,1659,921,415,16456,720,-3144,-1248,93,381
996835,1662,921,420,16536,700,-3384,-1216,-95,354
996845,1658,920,419,16560,792,-3044,-1264,-136,326
996855,1657,920,415,16548,732,-3172,-1248,-165,326
996865,1657,921,419,16560,672,-3172,-1248,-205,256
996875,1660,921,419,16616,624,-3228,-1248,-159,272
996885,1659,923,413,16588,504,-3152,-1280,-229,351
996895,1659,923,415,16656,512,-3104,-1264,-102,304
996905,1657,920,416,16572,512,-3084,-1248,161,169
996915,1658,922,419,16648,684,-3076,-1248,261,279
996925,1659,907,420,16600,740,-3016,-1248,227,234
996935,1657,921,415,16644,732,-3068,-1248,-19,314
996945,1655,922,419,16532,764,-3236,-1248,-269,305
996955,1661,921,416,16396,676,-3116,-1280,-319,185
996965,1658,921,419,16516,408,-3304,-1280,-297,115
996975,1658,922,419,16564,424,-3272,-1248,-347,187
996985,1675,923,415,16716,592,-2860,-1248,-201,232
996995,1659,921,421,16648,452,-3060,-1264,21,272
997005,1628,925,419,16556,656,-3016,-1248,214,224
997015,1656,921,415,16740,952,-3012,-1248,257,211
997025,1656,921,413,16680,932,-3048,-1248,107,205
997035,1659,920,415,16528,844,-3136,-1248,-100,221
997045,1658,921,419,16500,704,-3068,-1232,-144,265
997055,1657,921,419,16452,744,-2936,-1280,-120,254
997065,1657,921,395,16444,584,-3088,-1248,-187,209
997075,1657,922,414,16504,464,-3124,-1280,-394,153
997085,1659,922,415,16492,452,-3112,-1248,-408,121
997095,1659,981,416,16568,340,-3128,-1264,-271,101
997105,1657,921,415,16648,276,-3192,-1248,-184,82
997115,1657,921,419,16828,480,-2708,-1248,70,191
997125,1659,919,419,16724,632,-3020,-1248,157,254
997135,1659,921,415,16604,592,-3252,-1248,-263,260
997145,1658,924,419,16484,592,-2916,-1232,-576,216
997155,1657,922,419,16396,304,-3268,-1248,-566,63
997165,1659,921,419,16600,152,-3252,-1248,-497,-74
997175,1659,921,416,16588,272,-3240,-1248,-220,48
997185,1658,920,418,16744,220,-3120,-1248,-100,206
997195,1657,923,416,16700,348,-3116,-1264,12,295
997205,1659,919,421,16704,412,-3096,-1248,225,291
997215,1659,921,423,16560,432,-3272,-1248,131,232
997225,1659,923,421,16496,696,-3264,-1280,-7,162
997235,1657,923,419,16520,540,-3056,-1248,36,9
997245,1657,921,419,16672,484,-2928,-1264,-50,66
997255,1659,920,419,16528,624,-3236,-1216,-116,205
997265,1659,922,412,16612,412,-3260,-1216,-208,199
997275,1659,923,412,16400,412,-3120,-1280,-146,179
997285,1659,921,419,16648,372,-3296,-1248,-29,-45
997295,1659,922,421,16804,448,-3108,-1248,-89,119
997305,1658,921,415,16680,460,-3252,-1280,23,268
997315,1657,1032,416,16592,568,-3112,-1264,203,344
997325,1658,920,416,16572,728,-3192,-1232,106,347
997335,1659,921,421,16444,856,-3112,-1248,-203,255
997345,1657,921,419,16476,704,-3112,-1248,-359,196
997355,1657,921,421,16468,508,-3128,-1248,-489,124
997365,1658,921,415,16576,524,-3004,-1248,-242,49
997375,1657,923,420,16648,484,-3220,-1232,48,85
997385,1659,909,414,16628,496,-3028,-1248,54,210
997395,1657,921,416,16536,548,-3060,-1248,198,228
997405,1657,923,414,16632,560,-3168,-1248,275,161
997415,1657,889,419,16680,540,-3032,-1248,110,202
997425,1657,921,419,16548,644,-3180,-1264,-19,202
997435,1663,921,415,16592,608,-3228,-1248,-152,105
997445,1658,921,427,16432,492,-2960,-1248,-73,125
997455,1657,933,419,16612,392,-3424,-1248,-129,134
997465,1655,921,421,16660,332,-3024,-1216,-211,177
997475,1656,921,414,16620,420,-3068,-1280,60,247
997485,1657,920,413,16624,592,-3072,-1248,352,254
997495,1661,921,413,16604,696,-3288,-1216,209,252
997505,1659,921,415,16496,620,-3304,-1264,-74,200
997515,1659,925,420,16488,784,-3080,-1248,-62,126
997525,1659,920,413,16556,732,-3232,-1248,59,47
997535,1657,921,421,16568,616,-3140,-1248,-89,240
997545,1657,921,415,16488,680,-3272,-1248,-347,397
997555,1653,921,416,16280,652,-3192,-1264,-192,280
997565,1659,921,419,16448,432,-3248,-1248,-169,126
997575,1655,921,413,16544,404,-2924,-1216,-146,78
997585,1657,921,414,16628,564,-3216,-1280,79,119
997595,1657,921,419,16780,604,-3128,-1280,244,201
997605,1657,921,416,16664,692,-3012,-1232,68,419
997615,1657,921,420,16556,676,-3308,-1216,-234,374
997625,1679,924,419,16488,676,-3280,-1280,-277,202
997635,1659,919,421,16536,420,-3180,-1264,-302,91
997645,1657,917,414,16604,348,-3180,-1248,-391,99
997655,1625,919,416,16564,368,-2868,-1248,-235,203
997665,1653,921,420,16620,452,-3116,-1248,81,262
997675,1655,921,415,16644,592,-3124,-1216,289,217
997685,1656,923,414,16636,728,-3148,-1232,217,166
997695,1657,921,419,16608,916,-3068,-1280,-41,220
997705,1661,921,415,16444,796,-3048,-1216,-257,258
997715,1659,920,420,16476,660,-3184,-1232,-287,374
997725,1658,921,415,16388,492,-3092,-1248,-300,264
997735,1657,921,414,16500,424,-3088,-1232,-227,184
997745,1657,921,414,16560,488,-2980,-1280,-55,179
997755,1656,921,415,16648,504,-3136,-1280,22,204
997765,1659,924,423,16540,616,-3092,-1232,-115,271
997775,1661,922,419,16624,632,-2896,-1232,-104,291
997785,1659,920,415,16460,564,-2972,-1232,22,192
997795,1659,922,419,16536,628,-3308,-1248,-6,67
997805,1657,925,415,16524,512,-3172,-1248,-107,93
997815,1657,922,415,16632,620,-3132,-1264,-220,159
997825,1657,920,416,16676,748,-3124,-1248,-171,189
997835,1658,921,415,16624,688,-3224,-1248,-63,223
997845,1655,920,415,16576,560,-2964,-1232,-39,249
997855,1659,922,415,16408,496,-3404,-1248,-252,184
997865,1657,920,415,16440,376,-3212,-1296,-286,162
997875,1656,921,414,16556,448,-3140,-1280,51,117
997885,1655,921,407,16700,388,-3116,-1280,201,115
997895,1657,920,419,16684,500,-3088,-1232,22,271
997905,1657,921,439,16560,680,-2936,-1264,13,345
997915,1659,921,413,16500,652,-3136,-1232,84,180
997925,1659,920,413,16564,572,-3072,-1248,-19,84
997935,1658,922,415,16492,560,-3124,-1216,-68,150
997945,1659,921,415,16696,592,-3256,-1232,-132,204
997955,1657,920,423,16536,540,-3208,-1264,-179,241
997965,1657,921,413,16596,512,-3120,-1264,-168,325
997975,1656,921,413,16416,420,-3224,-1264,-106,218
997985,1658,919,413,16716,484,-3124,-1248,55,71
997995,1656,921,414,16740,584,-2928,-1232,226,91
998005,1657,920,414,16732,768,-3112,-1248,186,273
998015,1658,921,415,16632,668,-2932,-1248,118,363
998025,1659,920,448,16420,604,-3040,-1264,-43,212
998035,1656,920,419,16468,408,-3284,-1216,-230,106
998045,1657,936,415,16396,484,-3252,-1264,-200,31
998055,1657,921,415,16612,412,-3160,-1248,2,46
998065,1657,903,415,16528,372,-3120,-1248,24,250
998075,1685,921,416,16452,472,-3160,-1200,46,308
998085,1657,921,415,16500,448,-2972,-1232,101,145
998095,1657,921,419,16648,404,-3028,-1264,103,65
998105,1657,920,415,16592,528,-3132,-1248,170,70
998115,1659,921,419,16692,548,-3176,-1216,213,108
998125,1657,915,414,16628,644,-3080,-1248,174,231
998135,1657,921,413,16536,580,-3212,-1264,201,218
998145,1657,925,413,16520,568,-3336,-1264,85,168
998155,1657,919,414,16640,620,-3212,-1264,-129,161
998165,1658,919,415,16480,600,-3048,-1280,-65,85
998175,1659,921,415,16648,440,-3064,-1264,-44,57
998185,1657,921,413,16576,568,-3128,-1248,-73,159
998195,1670,918,415,16576,544,-3196,-1248,88,192
998205,1657,920,415,16532,564,-3272,-1264,195,114
998215,1657,919,415,16604,712,-3176,-1248,77,120
998225,1657,931,420,16592,668,-3232,-1264,5,79
998235,1657,921,414,16572,640,-3316,-1248,-110,71
998245,1657,923,415,16616,696,-3280,-1216,-176,126
998255,1627,921,415,16540,472,-3356,-1264,-173,134
998265,1659,921,415,16496,452,-3236,-1264,-77,200
998275,1657,921,413,16628,496,-3224,-1232,83,221
998285,1655,921,414,16608,548,-3264,-1232,171,157
998295,1657,921,413,16632,568,-3280,-1264,143,128
998305,1657,923,414,16624,664,-3396,-1232,39,127
998315,1657,921,415,16644,596,-3156,-1248,-111,236
998325,1658,921,415,16324,588,-3324,-1216,-138,266
998335,1657,921,415,16528,672,-3316,-1264,-146,160
998345,1658,920,414,16612,600,-3200,-1232,-209,93
998355,1657,896,413,16680,640,-3232,-1264,-210,63
998365,1657,921,415,16716,620,-2988,-1248,-100,97
998375,1656,920,415,16704,568,-2988,-1248,13,219
998385,1657,921,415,16588,588,-3108,-1232,76,277
998395,1661,828,418,16544,696,-3252,-1264,94,206
998405,1657,815,415,16540,620,-3164,-1264,-58,173
998415,1657,925,413,16532,548,-3380,-1264,-289,143
998425,1657,921,415,16564,460,-3224,-1216,-412,139
998435,1657,923,415,16580,352,-3016,-1264,-308,209
998445,1657,921,416,16508,512,-3196,-1248,-28,286
998455,1657,921,415,16584,564,-3336,-1248,31,286
998465,1656,921,415,16608,512,-3112,-1232,-71,277
998475,1658,921,415,16504,584,-3288,-1232,12,175
998485,1656,921,419,16580,668,-3460,-1264,-42,93
998495,1657,921,414,16660,628,-3100,-1264,-133,160
998505,1657,921,415,16632,628,-2896,-1216,-129,263
998515,1657,921,412,16460,800,-3364,-1200,-13,193
998525,1657,920,413,16624,596,-3272,-1232,-120,118
998535,1657,921,413,16560,540,-3048,-1264,-358,115
998545,1659,920,404,16448,420,-3276,-1264,-457,213
998555,1657,919,415,16580,448,-3180,-1280,-330,151
998565,1657,920,415,16552,256,-3072,-1264,-89,179
998575,1657,921,419,16644,452,-3112,-1216,-3,293
998585,1657,921,413,16564,556,-3240,-1264,68,293
998595,1657,923,419,16568,604,-3120,-1232,70,206
998605,1655,921,419,16552,620,-3112,-1264,-32,208
998615,1659,921,414,16524,600,-3212,-1232,-169,181
998625,1656,921,407,16616,584,-3352,-1232,-145,132
998635,1657,920,413,16488,656,-3220,-1280,-96,199
998645,1657,921,413,16604,616,-3336,-1248,-51,248
998655,1657,922,413,16552,676,-3244,-1232,-5,267
998665,1657,921,413,16600,628,-3492,-1264,-139,314
998675,1703,921,415,16400,548,-3384,-1264,-413,342
998685,1657,928,416,16604,552,-3256,-1248,-475,220
998695,1656,920,414,16528,496,-3100,-1264,-305,135
