timestamp_ms,mmg1,mmg2,mmg3,accelX,accelY,accelZ,gyroX,gyroY,gyroZ
921669,1685,951,541,16752,-1124,-776,-1296,-19,-1813
921679,1686,948,541,16892,-1148,-556,-1328,235,-1678
921689,1690,971,543,16876,-1208,-628,-1296,505,-1393
921699,1690,982,540,16904,-904,-960,-1296,400,-1143
921709,1692,905,542,16820,-860,-712,-1296,313,-972
921719,1689,965,542,16816,-848,-948,-1280,1,-878
921729,1689,966,541,16576,-976,-992,-1296,-441,-965
921739,1689,968,540,16556,-980,-1088,-1296,-911,-1393
921749,1688,959,541,16244,-836,-1088,-1312,-1303,-2092
921759,1691,945,541,16620,-864,-1124,-1264,-1639,-3200
921769,1689,959,537,16740,-1188,-1264,-1312,-2308,-3762
921779,1688,960,540,17172,-1864,-1008,-1280,-1391,-3243
921789,1690,959,538,16400,-972,-2488,-1312,-1574,-2837
921799,1689,939,543,17116,-1044,-920,-1312,-2448,-2365
921809,1688,941,541,17044,-820,-1188,-1280,-2523,-1382
921819,1691,937,537,18704,3396,-716,-1280,-5461,-968
921829,1688,923,542,16836,-460,-1140,-1312,-3191,-776
921839,1689,953,543,17516,-1000,-1508,-1312,-2999,247
921849,1691,972,537,17288,876,44,-1312,-3775,1127
921859,1687,1003,543,17164,852,-308,-1296,-3358,2064
921869,1691,983,551,17184,-1100,-484,-1280,-711,2076
921879,1689,940,535,16528,-2900,-840,-1312,-204,2349
921889,1689,919,532,16612,-2424,276,-1296,309,2401
921899,1689,934,533,17104,-736,-2136,-1280,1535,1868
921909,1689,983,542,16044,-1148,-1760,-1328,5072,650
921919,1689,1065,540,17220,404,-5544,-1312,6474,-1430
921929,1691,1036,533,17292,-1196,-96,-1312,2653,39
921939,1687,984,530,12624,-408,-5380,-1296,-2947,-3797
921949,1687,995,543,15748,-1264,-2184,-1296,-6947,-7614
921959,1689,955,541,16768,-1760,272,-1296,-7303,-8510
921969,1689,915,547,17776,-2732,-832,-1296,-5771,-7268
921979,1689,950,543,18096,-3180,-1576,-1280,-2873,-4507
921989,1689,988,547,18284,-3152,-804,-1296,88,-910
921999,1691,955,540,17900,-2748,-908,-1296,2380,2106
922009,1689,995,541,16844,-1780,-1796,-1280,2857,3103
922019,1685,972,547,15760,-1140,-2448,-1296,2492,2080
922029,1688,1002,552,15648,-1304,-2208,-1280,1247,197
922039,1691,1085,565,16336,-2112,-1736,-1296,-509,-992
922049,1689,1005,557,16564,-3076,-1956,-1264,-2053,-1159
922059,1688,995,544,17048,-2840,-1956,-1312,-1807,-724
922069,1689,985,537,17064,-2916,-1204,-1312,-380,-54
922079,1690,947,529,17248,-1984,-1164,-1312,2073,579
922089,1689,935,526,16656,-1216,-2116,-1280,3445,1071
922099,1689,953,527,16640,-608,-2844,-1280,2619,1066
922109,1689,971,531,16528,40,-2772,-1312,754,585
922119,1688,939,537,16204,-204,-1860,-1312,-657,85
922129,1707,965,536,16412,-1148,-2492,-1296,-1726,-533
922139,1690,943,533,16620,-1660,-1952,-1280,-1987,-911
922149,1689,948,532,16652,-2112,-1648,-1328,-1217,-839
922159,1689,940,533,16896,-1768,-1852,-1328,-291,-647
922169,1688,941,525,16792,-1420,-2056,-1280,566,-434
922179,1689,936,535,16760,-1328,-2632,-1296,208,-201
922189,1691,941,537,16584,-1364,-2736,-1296,-995,-269
922199,1689,970,535,16560,-1388,-2304,-1296,-1613,-470
922209,1689,969,537,16708,-1428,-2540,-1264,-2000,-825
922219,1690,995,535,16644,-1596,-2204,-1312,-1945,-939
922229,1689,995,537,16852,-1736,-1976,-1296,-1605,-892
922239,1689,979,540,16872,-1932,-1896,-1296,-1436,-669
922249,1711,969,540,16584,-1956,-2000,-1296,-1467,-524
922259,1689,971,535,16716,-1900,-2296,-1296,-1458,-522
922269,1689,955,533,16696,-1848,-2468,-1312,-1478,-802
922279,1688,951,533,16656,-1528,-2480,-1280,-1477,-842
922289,1677,955,532,16620,-1384,-2228,-1312,-1505,-599
922299,1689,1003,541,16712,-1708,-2296,-1280,-1853,-323
922309,1688,1045,537,16808,-1752,-2440,-1328,-2252,-297
922319,1690,1033,540,16712,-1856,-1976,-1280,-2056,-570
922329,1688,1039,538,16588,-1820,-2036,-1280,-1443,-708
922339,1689,1033,541,16672,-1624,-2492,-1328,-1125,-738
922349,1690,1032,538,16708,-1708,-2580,-1280,-1238,-536
922359,1690,1013,535,16836,-1344,-2012,-1296,-1446,-173
922369,1689,993,533,16624,-716,-2164,-1264,-1022,-120
922379,1689,970,535,16688,-356,-2604,-1344,-772,-252
922389,1688,984,536,16736,-388,-2696,-1264,-1377,-136
922399,1691,987,537,16468,-456,-2512,-1296,-2251,-56
922409,1688,975,535,16436,-656,-2424,-1296,-2889,164
922419,1683,936,533,16460,-1128,-2460,-1264,-3155,-207
922429,1689,939,534,16520,-1396,-2268,-1312,-2928,-255
922439,1690,919,533,16708,-1692,-2304,-1280,-2539,-153
922449,1677,925,539,16708,-1720,-2468,-1312,-2220,-62
922459,1688,902,541,16816,-1836,-2376,-1280,-1718,-27
922469,1688,943,543,16616,-1948,-2136,-1264,-1142,163
922479,1691,945,537,16488,-2108,-2196,-1312,-637,426
922489,1688,959,525,16744,-1896,-2212,-1280,-207,142
922499,1688,954,542,16756,-1408,-2356,-1296,336,-445
922509,1688,940,543,16916,-864,-3200,-1312,430,-595
922519,1683,981,539,17048,-860,-3620,-1312,-516,-330
922529,1687,990,541,17000,-984,-3188,-1312,-1607,309
922539,1689,978,571,16596,-916,-3096,-1280,-1802,636
922549,1689,968,537,16548,-972,-3204,-1328,-1404,506
922559,1687,983,539,16556,-1284,-3004,-1264,-1438,294
922569,1691,991,539,16684,-1496,-2712,-1296,-1818,446
922579,1689,990,532,16712,-1600,-2184,-1328,-1772,662
922589,1688,1001,535,16732,-1868,-2248,-1312,-1294,243
922599,1689,985,535,16596,-1712,-1980,-1328,-661,59
922609,1688,936,536,16896,-1048,-2256,-1296,271,136
922619,1689,932,534,16776,-476,-3036,-1312,702,192
922629,1689,974,536,16736,-28,-3344,-1296,155,587
922639,1687,955,538,16492,-56,-2996,-1296,-999,1026
922649,1687,935,541,16452,-484,-3160,-1296,-2214,931
922659,1688,941,541,16356,-1248,-3000,-1296,-3239,335
922669,1689,936,547,16540,-1444,-2172,-1312,-3100,-65
922679,1687,941,549,16784,-2024,-1924,-1296,-1990,-377
922689,1689,1033,529,17128,-2036,-2492,-1264,-1002,-428
922699,1688,996,534,17184,-1740,-1720,-1312,299,-135
922709,1678,988,529,17184,-1016,-1784,-1296,1692,550
922719,1689,953,531,16704,-276,-2712,-1312,2261,1065
922729,1687,955,517,16584,-28,-3084,-1312,1203,1220
922739,1689,994,535,16396,-172,-2892,-1312,-821,998
922749,1689,923,537,16116,-788,-2896,-1280,-2179,352
922759,1687,939,539,16244,-1328,-2752,-1312,-2454,-558
922769,1689,947,536,16668,-1764,-2356,-1312,-1978,-803
922779,1687,955,539,17008,-1724,-2156,-1280,-895,-296
922789,1689,952,539,17116,-1488,-2432,-1296,-64,526
922799,1689,967,536,16760,-1172,-2464,-1312,89,1237
922809,1688,965,523,16492,-780,-2616,-1280,7,1064
922819,1689,951,539,16308,-736,-2532,-1264,-177,742
922829,1689,927,533,16356,-556,-2620,-1296,-555,233
922839,1671,951,535,16508,-820,-2440,-1296,-603,-54
922849,1689,952,538,16652,-476,-2096,-1296,-367,162
922859,1687,937,538,16676,-356,-2368,-1280,-314,599
922869,1691,950,551,16436,-208,-2572,-1264,-359,852
922879,1689,949,535,16392,-340,-2520,-1296,-414,712
922889,1689,965,535,16324,-308,-2332,-1264,-553,575
922899,1690,969,527,16324,-28,-2228,-1296,-342,397
922909,1687,965,535,16540,396,-1780,-1312,284,435
922919,1687,932,530,16692,820,-2080,-1328,440,706
922929,1688,931,534,16580,1140,-2096,-1296,-207,1002
922939,1689,926,507,16224,964,-2304,-1280,-1059,1143
922949,1689,947,531,15984,756,-2284,-1328,-1701,653
922959,1689,975,535,16180,544,-1800,-1312,-1473,130
922969,1685,965,534,16532,468,-2092,-1296,-861,-222
922979,1690,979,533,17008,568,-2308,-1296,-441,-94
922989,1688,983,535,17084,728,-2212,-1280,-297,458
922999,1687,971,534,16980,712,-2416,-1312,-280,888
923009,1688,969,537,16604,712,-2264,-1280,-429,1023
923019,1688,943,533,16432,248,-2604,-1280,-751,733
923029,1689,937,535,16436,40,-2356,-1280,-1251,179
923039,1689,942,533,16580,-132,-1900,-1312,-1280,0
923049,1689,935,534,16660,-376,-1676,-1280,-891,190
923059,1689,931,533,16652,-528,-2088,-1280,-616,521
923069,1691,927,535,16556,-780,-2092,-1312,-636,669
923079,1689,1044,533,16420,-1132,-2332,-1280,-746,532
923089,1688,937,529,16432,-1292,-2500,-1280,-743,208
923099,1689,935,529,16700,-1196,-2320,-1280,-487,28
923109,1689,949,531,16864,-1048,-2360,-1264,-199,208
923119,1689,955,533,16860,-868,-2664,-1280,-85,479
923129,1688,970,534,16936,-652,-2564,-1312,-65,680
923139,1691,967,538,16768,-692,-2480,-1328,77,756
923149,1689,972,535,16764,-540,-2540,-1312,117,665
923159,1689,975,531,16820,-196,-2476,-1296,-1,561
923169,1693,982,537,16908,76,-2496,-1280,-235,643
923179,1690,983,539,16812,196,-2412,-1280,-500,789
923189,1688,995,533,16732,-20,-2492,-1296,-730,827
923199,1689,980,536,16768,-12,-2276,-1296,-742,751
923209,1689,983,536,16728,-392,-1888,-1296,-555,201
923219,1689,983,532,16744,-372,-1888,-1296,-243,264
923229,1695,977,531,17000,-80,-2004,-1296,110,406
923239,1688,965,532,16960,72,-1948,-1296,206,446
923249,1689,970,522,16720,-40,-2168,-1296,27,465
923259,1689,981,533,16656,-172,-2196,-1312,-284,401
923269,1689,959,531,16460,-324,-2096,-1296,-459,191
923279,1671,949,553,16540,-548,-2152,-1296,-482,39
923289,1689,942,533,16588,-888,-2240,-1328,-496,-43
923299,1690,941,533,16720,-1068,-2144,-1296,-424,81
923309,1691,935,532,16736,-1020,-1908,-1312,-179,215
923319,1689,938,535,16696,-1012,-2256,-1296,44,275
923329,1689,951,533,16652,-972,-2204,-1296,225,229
923339,1689,958,532,16696,-856,-2452,-1280,174,219
923349,1688,943,535,16736,-856,-2460,-1296,-106,217
923359,1689,965,533,16836,-916,-2356,-1312,-318,146
923369,1689,969,535,16772,-860,-2232,-1328,-268,156
923379,1688,958,537,16804,-916,-2232,-1296,-154,222
923389,1689,957,535,16756,-876,-2248,-1312,8,379
923399,1688,947,533,16660,-672,-2076,-1312,155,411
923409,1689,942,519,16564,-696,-2576,-1312,22,259
923419,1692,971,533,16656,-684,-2116,-1312,-56,17
923429,1689,973,531,16896,-348,-1980,-1280,88,-27
923439,1687,967,531,16984,-172,-2108,-1312,411,92
923449,1688,969,533,16868,116,-2252,-1312,572,314
923459,1689,982,535,16856,204,-2324,-1296,363,516
923469,1689,983,533,16664,92,-2352,-1312,-84,462
923479,1689,969,531,16460,8,-2296,-1312,-482,277
923489,1689,977,531,16600,-84,-2212,-1296,-584,21
923499,1688,985,532,16724,-196,-1956,-1312,-375,-75
923509,1688,974,531,16832,-332,-2000,-1296,-377,143
923519,1689,955,533,16832,-256,-2124,-1280,-344,307
923529,1688,949,529,16692,-324,-2200,-1280,-276,228
923539,1688,953,529,16816,-448,-1904,-1264,-300,29
923549,1687,1015,531,16596,-516,-1972,-1280,-298,-80
923559,1709,967,529,16680,-332,-2408,-1328,-131,-143
923569,1687,967,498,16716,-192,-2300,-1312,-9,-190
923579,1689,957,535,16900,-408,-2248,-1280,-134,-107
923589,1688,965,533,16844,-316,-2376,-1296,-426,122
923599,1691,956,533,16756,-412,-2640,-1296,-466,344
923609,1688,958,533,16740,-464,-2536,-1296,-400,218
923619,1689,953,531,16628,-732,-2308,-1296,-563,157
923629,1689,949,532,16720,-868,-2412,-1280,-794,174
923639,1689,942,532,16660,-1064,-2112,-1264,-802,69
923649,1689,953,509,16624,-1284,-2172,-1296,-595,-51
923659,1689,949,531,16764,-1304,-1856,-1312,-164,-36
923669,1689,933,531,16676,-1100,-1860,-1296,235,156
923679,1689,927,535,16836,-896,-2200,-1296,562,225
923689,1688,938,527,16672,-716,-2320,-1296,567,170
923699,1687,940,531,16676,-572,-2380,-1264,385,106
923709,1691,942,530,16556,-580,-2492,-1312,162,-27
923719,1689,947,533,16736,-580,-2236,-1264,25,-49
923729,1687,956,531,16692,-620,-2084,-1328,235,85
923739,1689,1108,529,16648,-500,-2320,-1280,460,247
923749,1693,971,531,16732,-476,-2740,-1296,540,236
923759,1689,953,531,16688,-320,-2320,-1280,293,233
923769,1687,951,533,16712,-244,-2360,-1296,163,200
923779,1689,951,534,16608,-304,-2540,-1296,-36,83
923789,1687,953,534,16708,-272,-2184,-1280,-180,66
923799,1689,935,532,16644,-276,-2032,-1312,-66,133
923809,1716,943,535,16768,-408,-2152,-1280,213,134
923819,1689,949,531,16632,-368,-2308,-1296,403,205
923829,1689,955,526,16668,-276,-2288,-1296,370,308
923839,1688,949,531,16640,-408,-2384,-1280,239,281
923849,1689,956,531,16644,-496,-2436,-1248,121,92
923859,1687,941,530,16608,-564,-2252,-1280,234,24
923869,1689,933,523,16652,-564,-1952,-1248,389,97
923879,1689,940,531,16684,-488,-2288,-1296,619,150
923889,1695,955,533,16740,-532,-2256,-1280,763,185
923899,1688,957,532,16672,-368,-2288,-1312,801,260
923909,1688,950,532,16608,-260,-2360,-1296,756,257
923919,1688,967,530,16560,-72,-2368,-1280,709,199
923929,1692,960,531,16616,60,-2480,-1312,637,128
923939,1689,954,532,16816,-16,-2452,-1248,529,93
923949,1659,953,527,16748,80,-2264,-1280,467,168
923959,1689,937,530,16884,72,-2164,-1296,397,208
923969,1687,972,525,16760,88,-2192,-1280,322,244
923979,1679,979,526,16760,232,-2224,-1280,349,221
923989,1688,965,531,16752,352,-2368,-1328,351,252
923999,1689,952,532,16700,384,-2468,-1280,245,383
924009,1689,959,529,16712,344,-2432,-1280,140,205
924019,1689,959,529,16684,236,-2200,-1280,16,190
924029,1688,1005,530,16604,240,-2340,-1280,-28,202
924039,1688,969,529,16716,168,-2392,-1296,-198,219
924049,1689,959,525,16788,-36,-2236,-1312,-357,255
924059,1689,967,529,16664,-320,-2364,-1312,-400,190
924069,1689,955,533,16716,-412,-2216,-1296,-259,109
924079,1694,956,531,16788,-504,-2200,-1280,-68,88
924089,1689,965,530,16772,-420,-2304,-1296,19,188
924099,1688,955,532,16728,-408,-2332,-1312,-7,346
924109,1689,955,531,16856,-476,-2368,-1312,-175,357
924119,1691,942,529,16712,-604,-2344,-1296,-295,247
924129,1689,943,529,16628,-656,-2380,-1264,-405,77
924139,1689,1003,529,16820,-756,-2212,-1296,-340,19
924149,1689,951,529,16868,-880,-2348,-1280,-248,197
924159,1687,941,527,16696,-792,-2424,-1280,-131,353
924169,1687,947,532,16736,-812,-2324,-1296,-168,401
924179,1687,947,529,16544,-736,-2360,-1296,-315,311
924189,1689,949,531,16624,-808,-2400,-1280,-407,164
924199,1689,944,531,16568,-956,-2524,-1296,-405,96
924209,1689,948,531,16688,-944,-2228,-1280,-436,98
924219,1688,948,494,16748,-988,-2112,-1328,-395,228
924229,1689,948,529,16652,-1096,-2112,-1328,-293,300
924239,1688,943,529,16612,-1092,-2180,-1312,-202,257
924249,1688,940,536,16520,-1068,-2124,-1296,-122,152
924259,1689,941,529,16724,-1016,-2104,-1296,-73,81
924269,1688,941,529,16632,-1052,-2156,-1312,-2,58
924279,1691,942,526,16664,-1036,-2464,-1296,41,86
924289,1687,949,531,16720,-808,-2292,-1312,79,119
924299,1690,959,525,16704,-812,-2236,-1296,124,111
924309,1689,956,525,16736,-688,-2400,-1264,118,81
924319,1688,935,525,16720,-572,-2388,-1248,84,122
924329,1690,952,529,16740,-624,-2348,-1312,75,189
924339,1689,947,529,16604,-496,-2460,-1312,19,171
924349,1687,949,527,16672,-560,-2412,-1280,-120,100
924359,1688,952,527,16732,-448,-2272,-1264,-176,67
924369,1708,957,529,16700,-564,-2264,-1280,-133,84
924379,1689,953,529,16788,-400,-2380,-1280,-15,168
924389,1687,951,526,16768,-432,-2380,-1296,7,221
924399,1687,944,527,16692,-420,-2456,-1312,-85,233
924409,1687,953,529,16760,-352,-2292,-1280,-191,269
924419,1688,944,525,16724,-536,-2532,-1312,-297,63
924429,1688,953,529,16584,-556,-2096,-1280,-275,-6
924439,1688,955,529,16748,-572,-2096,-1264,-155,54
924449,1715,945,500,16784,-572,-2304,-1280,-24,108
924459,1688,955,529,16716,-532,-2252,-1312,14,136
924469,1689,949,531,16720,-432,-2124,-1280,24,96
924479,1688,948,525,16712,-384,-2304,-1280,28,72
924489,1689,952,527,16720,-400,-2244,-1264,-69,37
924499,1688,953,531,16660,-456,-2468,-1312,-180,0
924509,1689,820,529,16672,-408,-2476,-1280,-215,62
924519,1689,943,521,16780,-532,-2376,-1296,-111,89
924529,1688,955,525,16672,-388,-2292,-1296,-15,125
924539,1689,967,533,16796,-388,-2432,-1296,-69,204
924549,1688,965,525,16724,-244,-2224,-1264,-41,199
924559,1689,969,529,16704,-220,-2344,-1296,-12,175
924569,1689,957,525,16676,-308,-2520,-1296,-76,129
924579,1689,955,529,16620,-408,-2260,-1296,-217,77
924589,1686,959,523,16620,-456,-2268,-1280,-161,-14
924599,1699,954,524,16740,-416,-2112,-1296,3,45
924609,1688,950,526,16820,-436,-2484,-1264,50,114
924619,1689,948,531,16724,-356,-2576,-1280,-111,134
924629,1688,951,529,16768,-400,-2328,-1296,-222,156
924639,1688,951,527,16732,-496,-2384,-1248,-145,38
924649,1688,950,529,16756,-540,-2316,-1296,-5,-32
924659,1687,943,525,16720,-440,-2500,-1296,14,35
924669,1689,941,525,16724,-388,-2536,-1280,24,170
924679,1688,938,524,16620,-412,-2260,-1296,166,208
924689,1688,949,525,16732,-364,-2536,-1264,134,157
924699,1689,950,525,16700,-372,-2572,-1280,-54,95
924709,1687,983,522,16704,-416,-2760,-1264,-251,103
924719,1681,952,526,16740,-628,-2484,-1280,-383,134
924729,1687,1011,529,16708,-648,-2276,-1264,-330,208
924739,1658,943,529,16640,-684,-2424,-1328,-236,167
924749,1689,967,529,16640,-648,-2300,-1280,-169,124
924759,1689,955,529,16820,-688,-2252,-1312,-60,187
924769,1687,941,529,16692,-464,-2288,-1312,156,176
924779,1688,941,525,16696,-380,-2236,-1312,361,217
924789,1689,942,527,16704,-244,-2332,-1296,306,247
924799,1688,967,527,16584,-72,-2536,-1312,168,235
924809,1689,941,525,16672,-104,-2336,-1280,87,63
924819,1687,948,525,16644,-268,-2516,-1296,-107,101
924829,1689,943,525,16672,-296,-2456,-1312,-130,70
924839,1688,954,523,16860,-292,-2536,-1248,-115,78
924849,1689,965,525,16908,-248,-2304,-1312,-80,159
924859,1687,957,526,16936,-300,-2216,-1312,-56,269
924869,1687,953,526,16660,-392,-2328,-1264,15,222
924879,1689,949,525,16592,-444,-2272,-1312,80,165
924889,1688,951,525,16644,-448,-2368,-1280,17,133
924899,1691,947,529,16616,-392,-2624,-1296,-49,83
924909,1688,943,525,16792,-368,-2524,-1248,8,105
924919,1689,953,527,16772,-452,-2304,-1264,93,192
924929,1687,943,523,16740,-448,-2712,-1296,119,258
924939,1688,951,525,16656,-280,-2512,-1312,119,234
924949,1689,952,525,16756,-212,-2484,-1296,139,249
924959,1688,950,524,16660,-260,-2468,-1296,72,225
924969,1689,953,525,16624,-216,-2560,-1312,-57,158
924979,1687,957,524,16720,-288,-2428,-1280,-134,119
924989,1688,958,525,16612,-456,-2404,-1296,-132,175
924999,1689,947,523,16720,-264,-2428,-1264,-82,215
925009,1687,949,529,16812,-328,-2432,-1264,-112,229
925019,1689,907,525,16824,-268,-2268,-1280,135,251
925029,1684,951,524,16744,-292,-2336,-1296,303,302
925039,1688,967,524,16660,-76,-2468,-1296,158,367
925049,1688,957,523,16604,-52,-2496,-1280,-17,291
925059,1689,973,529,16596,-92,-2384,-1328,-245,267
925069,1687,965,525,16616,-304,-2540,-1280,-460,148
925079,1691,949,523,16760,-296,-2324,-1296,-321,32
925089,1688,959,523,16712,-412,-2072,-1328,-72,164
925099,1691,950,527,16836,-324,-2196,-1280,-60,353
925109,1687,937,531,16672,-336,-2348,-1280,-40,423
925119,1689,939,525,16500,-440,-2204,-1280,104,295
925129,1663,939,531,16524,-568,-2176,-1280,2,148
925139,1687,939,522,16536,-452,-2288,-1280,-31,111
925149,1687,936,529,16656,-476,-2308,-1280,133,116
925159,1688,887,523,16732,-288,-2420,-1280,146,124
925169,1687,933,523,16644,-184,-2328,-1280,61,169
925179,1687,933,525,16732,-88,-2444,-1280,149,183
925189,1687,950,525,16676,-228,-2632,-1248,122,179
925199,1689,950,525,16616,-128,-2660,-1296,-79,258
925209,1687,950,523,16588,-224,-2440,-1280,-162,449
925219,1689,942,525,16712,-228,-2304,-1296,-154,233
925229,1689,947,523,16748,-364,-2416,-1312,-192,105
925239,1687,944,524,16900,-288,-2160,-1312,-120,99
925249,1689,956,521,16904,-84,-2176,-1264,163,194
925259,1684,949,523,16732,68,-2292,-1296,412,406
925269,1688,948,525,16632,100,-2512,-1296,302,459
925279,1687,955,524,16500,84,-2572,-1264,-19,346
925289,1687,905,525,16600,24,-2624,-1280,-436,78
925299,1689,949,523,16620,-268,-2308,-1264,-513,-78
925309,1689,938,524,16708,-424,-2316,-1312,-221,-79
925319,1688,940,533,16808,-312,-2212,-1312,184,134
925329,1689,1039,522,16784,-56,-2500,-1264,466,339
925339,1687,948,523,16712,4,-2516,-1296,285,363
925349,1687,941,522,16592,-48,-2488,-1296,98,211
925359,1685,952,523,16652,-44,-2580,-1280,-2,48
925369,1689,947,526,16712,-12,-2448,-1296,-63,-39
925379,1689,951,529,16796,-264,-2480,-1296,-202,77
925389,1689,957,523,16736,-288,-2540,-1296,-326,265
925399,1688,943,525,16680,-188,-2156,-1280,5,335
925409,1688,948,524,16700,-136,-2536,-1264,258,288
925419,1689,964,521,16632,-204,-2388,-1280,61,195
925429,1689,968,523,16528,-104,-2444,-1280,-96,164
925439,1691,949,524,16584,-44,-2416,-1264,-51,110
925449,1688,927,524,16800,-212,-2252,-1280,49,59
925459,1689,939,521,16660,-144,-2560,-1264,60,119
925469,1687,947,521,16836,-96,-2196,-1296,44,278
925479,1689,947,524,16568,-60,-2348,-1312,163,253
925489,1687,951,523,16512,-12,-2552,-1344,118,189
925499,1689,949,525,16596,-72,-2512,-1280,-48,112
925509,1687,948,523,16684,72,-2388,-1312,-179,109
925519,1660,942,525,16740,48,-2540,-1280,-167,107
925529,1689,950,523,16820,-96,-2492,-1280,-123,169
925539,1688,956,523,16904,24,-2404,-1312,-98,269
925549,1688,959,523,16644,-44,-2544,-1280,-37,350
925559,1687,956,523,16532,-20,-2364,-1280,-13,316
925569,1689,954,523,16640,0,-2204,-1312,-49,270
925579,1689,951,522,16564,44,-2496,-1328,-153,158
925589,1687,947,523,16668,-44,-2404,-1312,-193,152
925599,1687,953,522,16748,-64,-2316,-1280,-170,225
925609,1689,941,522,16692,8,-2304,-1280,-43,376
925619,1689,947,521,16760,100,-2612,-1280,27,262
925629,1687,947,523,16820,104,-2384,-1296,58,296
925639,1689,948,523,16712,156,-2396,-1280,-63,312
925649,1688,943,523,16640,68,-2616,-1280,-209,296
925659,1689,946,531,16600,-40,-2500,-1264,-368,297
925669,1689,941,521,16640,-72,-2500,-1280,-423,294
925679,1689,1016,521,16580,-196,-2420,-1296,-359,258
925689,1688,937,521,16612,-276,-2280,-1296,-263,250
925699,1688,941,519,16624,-280,-2452,-1280,-196,219
925709,1689,955,524,16748,-356,-2340,-1296,-157,194
925719,1689,967,524,16800,-196,-2244,-1296,38,113
925729,1687,970,521,16864,68,-2448,-1280,244,278
925739,1688,955,521,16688,164,-2512,-1328,175,471
925749,1683,950,521,16552,136,-2576,-1296,-29,390
925759,1687,951,520,16616,28,-2540,-1280,-300,219
925769,1723,943,521,16608,-196,-2532,-1296,-481,75
925779,1688,987,522,16736,-128,-2244,-1280,-381,48
925789,1688,942,521,16848,-320,-2348,-1296,-86,132
925799,1689,937,499,16812,-256,-2432,-1296,76,320
925809,1687,949,521,16652,-144,-2524,-1280,138,318
925819,1688,955,523,16676,8,-2336,-1296,118,260
925829,1687,968,523,16708,-64,-2408,-1296,-73,239
925839,1687,968,523,16644,-96,-2640,-1280,-306,143
925849,1689,958,522,16556,-224,-2260,-1280,-321,44
925859,1687,950,520,16688,-368,-2376,-1312,-216,126
925869,1689,983,521,16832,-352,-2444,-1296,-119,212
925879,1685,951,525,16896,-292,-2200,-1264,-93,282
925889,1689,951,529,16808,-296,-2248,-1280,-92,319
925899,1693,935,527,16664,-276,-2248,-1280,36,268
925909,1689,935,521,16564,-140,-2404,-1280,305,124
925919,1687,957,521,16708,-132,-2584,-1280,156,124
925929,1688,939,521,16692,-92,-2636,-1312,-134,168
925939,1688,941,525,16604,-420,-2580,-1280,-144,155
925949,1688,951,519,16736,-388,-2244,-1280,22,21
925959,1688,953,524,16760,-364,-2352,-1296,187,47
925969,1690,952,523,16796,-264,-2352,-1280,300,174
925979,1688,947,521,16720,-40,-2408,-1312,345,312
925989,1687,942,524,16580,-88,-2520,-1280,228,268
925999,1689,954,520,16640,-180,-2516,-1312,-42,113
926009,1687,947,522,16516,-96,-2504,-1328,-122,2
926019,1689,943,519,16624,-68,-2488,-1280,-29,131
926029,1688,935,521,16820,-28,-2400,-1280,-23,152
926039,1687,939,523,16748,-88,-2300,-1328,-63,328
926049,1689,939,521,16608,-148,-2248,-1280,-45,370
926059,1734,936,519,16420,-68,-2336,-1328,77,178
926069,1689,937,523,16616,-32,-2348,-1296,17,13
926079,1689,936,523,16772,-92,-2516,-1312,-174,28
926089,1689,957,533,16752,-52,-2428,-1296,-122,34
926099,1689,969,523,16796,-28,-2368,-1296,82,137
926109,1687,974,521,16776,112,-2368,-1280,239,294
926119,1688,959,523,16704,100,-2420,-1328,200,311
926129,1688,955,535,16624,92,-2664,-1264,-67,223
926139,1687,954,524,16576,-12,-2480,-1264,-260,159
926149,1688,1033,521,16648,-168,-2500,-1296,-340,177
926159,1689,936,521,16588,-208,-2344,-1296,-337,116
926169,1688,953,521,16732,-356,-2412,-1296,-180,174
926179,1688,932,521,16780,-316,-2256,-1296,18,232
926189,1688,857,509,16780,-100,-2188,-1280,189,191
926199,1688,942,521,16792,0,-2396,-1296,160,235
926209,1689,935,519,16732,96,-2536,-1264,-19,189
926219,1691,948,523,16720,36,-2416,-1280,-116,129
926229,1688,953,521,16736,32,-2484,-1296,-179,148
926239,1707,943,521,16656,-184,-2412,-1312,-193,167
926249,1690,943,523,16696,-212,-2288,-1264,-103,201
926259,1688,941,521,16648,-340,-2372,-1296,-25,210
926269,1689,939,521,16528,-164,-2500,-1312,74,248
926279,1688,940,519,16780,-32,-2564,-1312,108,180
926289,1677,944,522,16752,-192,-2396,-1312,55,197
926299,1689,975,520,16612,-96,-2468,-1280,86,197
926309,1689,978,520,16656,44,-2448,-1296,55,202
926319,1688,951,511,16652,48,-2300,-1280,-64,181
926329,1689,952,520,16648,120,-2616,-1280,-89,166
926339,1689,952,521,16748,160,-2360,-1328,-54,169
926349,1689,949,521,16760,260,-2496,-1280,-67,272
926359,1688,951,519,16564,-16,-2504,-1248,-121,190
926369,1688,957,520,16548,-84,-2364,-1280,-223,185
926379,1689,949,521,16648,-28,-2256,-1280,-168,155
926389,1689,943,521,16664,-140,-2272,-1296,-97,81
926399,1687,940,521,16728,-256,-2332,-1248,-38,122
926409,1688,947,520,16776,-104,-2536,-1248,19,198
926419,1689,948,518,16744,-32,-2500,-1296,73,401
926429,1689,946,519,16568,-128,-2412,-1280,24,296
926439,1687,955,519,16768,-128,-2580,-1312,-213,248
926449,1689,952,519,16612,-8,-2444,-1280,-255,156
926459,1683,954,520,16812,-100,-2236,-1312,-151,170
926469,1689,936,519,16732,-56,-2240,-1296,-108,294
926479,1688,941,521,16708,28,-2284,-1280,67,295
926489,1687,941,522,16656,-36,-2512,-1280,-15,260
926499,1689,941,519,16712,0,-2248,-1248,-194,209
926509,1688,947,521,16620,-20,-2400,-1280,-67,177
926519,1686,955,521,16624,-200,-2528,-1296,1,196
926529,1687,951,537,16696,-24,-2356,-1280,-43,290
926539,1687,943,521,16712,4,-2380,-1280,-17,292
926549,1689,946,521,16732,-36,-2576,-1296,61,166
926559,1688,953,520,16760,-32,-2432,-1312,-76,150
926569,1688,964,519,16796,-92,-2508,-1264,-277,179
926579,1687,955,519,16796,-196,-2376,-1328,-195,215
926589,1689,945,520,16720,-64,-2196,-1280,139,235
926599,1689,943,519,16608,16,-2540,-1264,183,297
926609,1687,943,519,16644,104,-2476,-1280,-76,282
926619,1689,951,521,16632,-60,-2396,-1280,-222,194
926629,1689,955,521,16716,-72,-2492,-1280,-211,107
926639,1687,957,521,16724,-72,-2304,-1296,-113,191
926649,1689,953,504,16684,52,-2288,-1296,11,283
926659,1688,953,503,16736,16,-2388,-1264,86,377
926669,1687,949,519,16584,-108,-2672,-1312,-93,347
926679,1689,940,520,16652,-248,-2204,-1264,-130,204
926689,1689,947,518,16572,-196,-2284,-1280,-56,131
926699,1689,946,521,16760,-132,-2344,-1280,-42,123
926709,1689,947,518,16836,-8,-2156,-1296,-42,203
926719,1687,940,521,16780,28,-2268,-1264,-12,269
926729,1687,931,521,16640,132,-2420,-1296,-140,326
926739,1690,935,519,16716,64,-2244,-1328,-348,241
926749,1685,942,519,16556,-176,-2392,-1312,-566,121
926759,1684,933,519,16644,-272,-2072,-1296,-535,32
926769,1687,838,522,16676,-460,-2288,-1232,-236,-133
926779,1687,931,520,16768,-520,-2164,-1312,163,26
926789,1683,938,512,16764,-68,-1892,-1264,587,349
926799,1688,939,522,16664,60,-2480,-1312,343,439
926809,1687,919,521,16636,168,-2632,-1280,-381,255
926819,1689,947,519,16556,-68,-2816,-1328,-794,39
926829,1687,942,511,16584,-20,-2472,-1280,-354,-153
926839,1689,939,519,16996,52,-3216,-1280,-14,11
926849,1687,951,519,16896,72,-3236,-1264,-172,398
926859,1689,1000,518,16740,-20,-3068,-1312,-203,593
926869,1687,971,510,16492,260,-2644,-1280,124,604
926879,1687,959,520,16700,120,-2856,-1280,0,584
926889,1689,948,519,16736,32,-2784,-1280,-604,381
926899,1687,952,519,16636,-428,-2380,-1264,-787,349
926909,1687,943,519,16788,-544,-2484,-1280,-303,398
926919,1685,936,518,16712,-480,-2476,-1312,352,495
926929,1687,955,519,16820,-384,-2324,-1296,633,745
926939,1688,936,485,16748,8,-2556,-1280,588,895
926949,1679,931,519,16560,84,-2752,-1280,238,698
926959,1689,933,519,16640,48,-2876,-1312,-43,489
926969,1687,955,510,16616,240,-2432,-1280,-199,519
926979,1688,951,519,16696,272,-2744,-1296,-300,852
926989,1686,949,509,16764,-16,-2948,-1280,-647,1026
926999,1687,948,519,16772,-380,-2664,-1312,-870,989
927009,1688,996,509,16640,-424,-2228,-1312,-361,778
927019,1688,951,509,16924,-332,-2544,-1280,73,763
927029,1687,952,520,17036,-172,-2496,-1296,-137,944
927039,1687,949,519,16840,-200,-2240,-1248,-240,1203
927049,1687,940,511,16636,-280,-2504,-1280,-63,1234
927059,1689,938,522,16604,-452,-2824,-1264,-144,994
927069,1687,938,519,16824,-456,-2504,-1280,-199,863
927079,1687,942,520,16864,-516,-2384,-1296,-99,934
927089,1688,944,520,16836,-560,-2472,-1296,45,1121
927099,1691,951,520,16864,-664,-2640,-1312,-55,1332
927109,1687,951,520,16780,-892,-2380,-1296,-185,1417
927119,1687,941,520,16688,-876,-2492,-1264,-409,1358
927129,1687,922,520,16728,-1228,-2624,-1280,-473,1091
927139,1689,948,520,16864,-1504,-2264,-1296,-416,1100
927149,1688,921,521,16888,-1852,-2300,-1312,-333,1300
927159,1687,927,521,16700,-2112,-2384,-1296,-96,1459
927169,1689,922,521,16792,-2352,-2348,-1264,121,1623
927179,1687,905,525,16820,-2448,-2612,-1280,362,1539
927189,1689,919,523,16700,-2516,-2704,-1248,514,1382
927199,1699,931,522,16848,-2748,-2864,-1280,483,1389
927209,1687,924,525,16960,-2772,-2748,-1280,385,1352
927219,1688,888,525,16992,-3184,-2812,-1296,270,1407
927229,1691,886,518,17096,-3528,-2252,-1280,332,1867
927239,1687,874,508,17068,-3396,-1852,-1280,682,1921
927249,1688,837,511,17120,-3164,-1876,-1296,1358,1865
927259,1688,815,511,17292,-2948,-2188,-1280,1553,1521
927269,1688,1277,501,17612,-2508,-2416,-1296,1142,1169
927279,1687,1127,505,17964,-2200,-2540,-1248,414,774
927289,1683,1010,519,18404,-1740,-2208,-1280,-389,587
927299,1687,981,507,19248,-1396,-2172,-1264,-1287,535
927309,1688,964,507,20096,-1692,-2596,-1296,-2542,466
927319,1692,954,509,21128,-1504,-3080,-1264,-3860,125
927329,1689,952,504,22596,-2800,-3720,-1248,-5295,-154
927339,1687,952,511,23136,-3340,-1660,-1264,-6253,1278
927349,1687,950,504,23204,-3300,-620,-1264,-5486,3671
927359,1687,957,506,21976,-2912,-2236,-1296,-3356,5328
927369,1688,957,505,20908,-2512,-2672,-1280,-1548,5646
927379,1689,933,501,20384,-328,-1100,-1280,-506,5718
927389,1689,927,520,19512,960,-3200,-1280,-585,4775
927399,1687,925,517,19300,1468,-4756,-1312,-2083,2946
927409,1687,933,503,19836,2192,-4364,-1296,-3501,652
927419,1687,943,499,20764,2424,-4484,-1280,-3972,-1509
927429,1687,942,499,21932,2996,-3508,-1312,-4041,-1894
927439,1689,934,497,22884,4076,-1876,-1264,-3330,-126
927449,1689,943,502,23132,5688,-1212,-1280,-2443,2377
927459,1689,1075,521,20856,6576,-2152,-1296,-1478,3704
927469,1685,941,524,18880,6612,-2336,-1312,-1509,4226
927479,1685,941,519,18240,6260,-1920,-1248,-3172,3725
927489,1686,940,506,18376,6520,-1356,-1264,-5378,2106
927499,1688,943,506,18420,6824,-844,-1264,-6632,-224
927509,1687,946,519,18392,7056,-680,-1264,-6760,-1783
927519,1686,943,523,18044,6784,-168,-1296,-6336,-1224
927529,1685,943,523,17968,6272,504,-1280,-5960,669
927539,1687,943,521,17316,5908,1760,-1296,-5279,2611
927549,1687,943,507,16176,5856,2256,-1264,-3343,3855
927559,1686,946,505,15268,6136,2968,-1248,-769,4306
927569,1685,943,507,14512,6192,2884,-1264,1474,3823
927579,1685,943,536,14216,6560,2092,-1280,3083,2363
927589,1684,942,519,13504,7180,1728,-1296,4022,1096
927599,1688,942,523,13152,7944,1376,-1264,4583,155
927609,1686,941,519,13320,7636,640,-1280,4624,-806
927619,1688,939,511,13756,7380,364,-1280,3878,-1429
927629,1685,940,519,13192,7452,792,-1280,3724,-577
927639,1699,941,509,12896,7356,640,-1280,4605,-127
927649,1687,939,509,12456,7980,808,-1248,5818,531
927659,1689,940,519,11540,8080,216,-1280,5645,1575
927669,1687,941,509,11124,8728,-96,-1248,4366,1993
927679,1687,940,509,10148,8644,196,-1296,2822,2690
927689,1687,941,511,9520,8168,-52,-1280,1322,2473
927699,1685,940,509,9588,7220,172,-1312,-61,1165
927709,1687,940,512,9444,6324,1120,-1280,38,8
927719,1688,941,509,9936,6020,1940,-1280,1881,-834
927729,1692,939,508,10400,5976,1508,-1296,4164,-1474
927739,1687,940,517,10748,6056,696,-1312,5227,-1439
927749,1692,941,527,10820,6228,352,-1280,4698,-844
927759,1687,965,509,10884,6088,664,-1264,3557,-133
927769,1685,948,519,10652,6208,1028,-1280,2928,397
927779,1683,939,500,10332,6280,552,-1296,2903,404
927789,1686,940,510,10472,6192,-164,-1280,2704,-180
927799,1687,941,519,10716,5812,-352,-1280,2126,-963
927809,1687,940,520,11196,5448,-332,-1296,1530,-1229
927819,1689,941,521,11368,5356,12,-1264,1434,-949
927829,1689,941,519,11428,5332,124,-1296,2125,-378
927839,1685,941,519,11508,5304,-212,-1280,3269,-153
927849,1690,938,509,11860,5308,-704,-1296,3901,-426
927859,1688,941,517,11944,5344,-776,-1296,3927,-516
927869,1687,943,510,12284,5572,-1032,-1296,3378,-520
927879,1689,941,519,12508,5292,-948,-1280,2163,-343
927889,1687,1023,509,13004,5168,-528,-1264,1026,-135
927899,1687,942,509,13544,5212,-52,-1312,770,-179
927909,1689,941,518,13732,4560,-540,-1296,950,-726
927919,1687,969,518,13948,3808,-640,-1264,631,-1098
927929,1689,940,518,13888,3228,-48,-1280,138,-909
927939,1689,941,507,14216,3180,628,-1264,764,-641
927949,1687,941,511,14164,3296,392,-1264,2735,-977
927959,1687,941,508,14316,3472,-264,-1312,4651,-1783
927969,1691,941,508,14552,3612,-1296,-1264,5427,-2415
927979,1688,943,509,14644,4172,-2004,-1248,5161,-2702
927989,1689,941,510,14644,4740,-2180,-1296,4392,-2405
927999,1685,941,509,14416,5556,-1952,-1264,3253,-1182
928009,1689,943,509,13752,5972,-1816,-1312,2164,441
928019,1687,947,522,12856,6068,-2456,-1280,782,1468
928029,1689,947,519,11884,5720,-2528,-1248,-786,1967
928039,1691,943,519,11056,5056,-2356,-1280,-2521,1871
928049,1689,942,517,10448,4416,-2240,-1280,-3680,1258
928059,1687,943,509,9760,3664,-1540,-1312,-3934,626
928069,1687,953,518,8872,3172,-184,-1280,-3850,868
928079,1689,933,523,8200,2896,776,-1296,-3528,1831
928089,1707,959,484,9868,244,-284,-1312,-3120,1794
928099,1647,935,761,32767,-8828,-17256,-1328,-9111,-15920
928109,1717,940,414,32767,-12972,-19636,-1312,-26471,-32768
928119,1685,938,391,32767,-15996,8672,-1312,-26767,-32768
928129,1671,949,391,27220,-10344,17804,-1328,-4143,-4014
928139,1685,953,441,10152,-1228,10468,-1296,30143,32334
928149,1685,927,555,-1688,748,4844,-1280,32767,32767
928159,1693,951,602,7016,6320,-5440,-1264,32767,32767
928169,1707,951,547,18056,8240,-15020,-1312,12775,32767
928179,1637,948,499,10388,8896,-9520,-1296,-7444,7491
928189,1676,941,511,13072,8572,-4692,-1328,-10486,-21416
928199,1687,939,503,10516,1472,1428,-1312,-6575,-29394
928209,1691,935,485,-18532,-1460,-14848,-1280,-10875,-32768
928219,1676,935,487,-3588,-16676,-4076,-1280,-20391,-32768
928229,1685,934,523,25256,-2608,6232,-1312,-12216,-32592
928239,1678,939,490,30820,1268,3560,-1296,-1382,-16951
928249,1693,937,533,28788,5236,-1196,-1296,11627,1910
928259,1685,947,504,18828,4896,-6464,-1296,18574,14201
928269,1687,947,511,11952,4360,-8132,-1328,15860,22189
928279,1687,950,531,11120,6268,-8736,-1280,8334,23840
928289,1683,947,517,12144,5684,-6112,-1296,-2121,17789
928299,1677,943,520,13232,5412,-3120,-1296,-8408,4869
928309,1687,941,503,13628,4664,-816,-1280,-7904,-8299
928319,1690,939,501,13736,3332,-328,-1312,-4227,-17773
928329,1685,938,506,14588,3156,208,-1312,542,-19439
928339,1688,939,511,16700,3456,-1912,-1296,2844,-14633
928349,1683,940,520,18292,4896,-3572,-1296,2123,-6179
928359,1684,940,517,18252,6812,-2756,-1312,1875,1420
928369,1686,943,519,17396,8236,-2864,-1312,3146,4983
928379,1686,947,507,17084,7716,-4820,-1312,3948,3436
928389,1681,942,517,16600,6384,-5660,-1312,1663,-411
928399,1687,942,508,15808,5792,-3748,-1296,-2028,-2442
928409,1688,941,506,15320,5576,-1492,-1312,-2450,-2644
928419,1687,941,505,15512,6360,-896,-1280,988,-2764
928429,1689,941,509,16524,6620,-2732,-1296,4367,-3301
928439,1688,942,519,16956,6636,-3964,-1312,3941,-2947
928449,1689,941,533,16820,6844,-3880,-1296,1119,-1095
928459,1689,944,519,16748,7156,-3388,-1312,-132,-101
928469,1671,940,509,16684,6392,-3744,-1280,520,-922
928479,1687,955,509,16276,5600,-3496,-1280,1359,-1718
928489,1687,945,504,16268,4900,-3864,-1328,1890,-2040
928499,1688,941,503,16140,4604,-4284,-1296,1906,-2065
928509,1689,942,501,16644,5304,-4204,-1296,1932,-1788
928519,1683,941,507,17024,5672,-4136,-1312,1887,-1521
928529,1685,943,520,16824,5616,-3668,-1328,987,-652
928539,1687,942,519,17072,6176,-2552,-1264,240,331
928549,1687,941,518,16340,5976,-3056,-1312,731,57
928559,1688,941,509,15676,5648,-3304,-1328,1578,-1131
928569,1687,942,509,15816,5464,-3580,-1280,1889,-2059
928579,1688,941,519,16200,5124,-4084,-1296,1275,-2881
928589,1687,942,508,16836,5120,-4108,-1296,374,-3101
928599,1685,941,509,16768,4812,-3972,-1312,-467,-2722
928609,1685,941,508,16684,4808,-2344,-1312,-512,-1735
928619,1688,947,506,16356,5072,-2876,-1280,-37,-1018
928629,1686,941,507,15944,4860,-4384,-1280,44,-1467
928639,1685,941,519,15900,4164,-5240,-1328,-1263,-2165
928649,1685,941,507,16004,3716,-4820,-1280,-2929,-2696
928659,1689,948,503,16160,2816,-4716,-1312,-3528,-3083
928669,1687,940,505,16172,2056,-4644,-1280,-3239,-3200
928679,1687,941,507,15824,1604,-3684,-1312,-2604,-2319
928689,1687,940,501,16152,1628,-4756,-1264,-1380,-1742
928699,1685,943,504,15792,1604,-5984,-1280,-968,-2043
928709,1671,941,509,15796,2112,-5140,-1312,-1132,-1719
928719,1683,949,519,16396,2080,-6008,-1296,-1778,-1289
928729,1662,941,510,16488,1484,-7220,-1280,-3134,-1907
928739,1643,943,520,16212,72,-5264,-1328,-4919,-1483
928749,1691,941,509,16048,120,-3084,-1296,-4973,69
928759,1689,943,533,15836,-216,-4436,-1312,-3362,450
928769,1683,947,505,14904,-740,-5700,-1296,-2655,-417
928779,1689,941,507,15360,-884,-4948,-1296,-2515,-791
928789,1687,941,503,15504,-1632,-5644,-1280,-3259,-1000
928799,1683,932,518,15468,-1492,-5444,-1328,-3084,-1562
928809,1689,941,511,15372,-1924,-5512,-1280,-1540,-1961
928819,1687,942,495,15152,-1920,-6460,-1280,-152,-1851
928829,1687,941,503,15164,-1608,-6876,-1296,812,-1445
928839,1687,940,510,15392,-1988,-6804,-1280,461,-1105
928849,1685,942,509,15928,-2740,-5692,-1280,-192,-143
928859,1685,943,510,15744,-2956,-4956,-1280,97,-106
928869,1687,941,510,15092,-2556,-4160,-1312,1838,200
928879,1692,935,502,15364,-2184,-4944,-1264,3822,265
928889,1689,943,496,16300,-768,-5352,-1312,5638,-687
928899,1679,943,507,17132,-296,-5140,-1280,5792,-1903
928909,1687,943,534,17064,-220,-2912,-1280,4789,-1140
928919,1689,941,525,17416,-76,-3120,-1280,2521,650
928929,1687,942,505,16176,-588,-5424,-1296,416,808
928939,1688,943,519,15160,-480,-5432,-1328,151,-165
928949,1707,941,508,15632,-724,-5068,-1296,946,-1031
928959,1685,941,503,16064,-472,-4976,-1264,1707,-1313
928969,1687,941,503,16044,920,-5024,-1312,2608,-755
928979,1688,941,507,16308,1696,-5792,-1264,2708,-8
928989,1687,941,510,16316,1528,-5780,-1296,1381,399
928999,1687,941,521,16352,760,-4556,-1344,-507,1073
929009,1687,943,508,15772,-352,-4216,-1296,-1619,1469
929019,1688,941,494,15772,-1032,-3980,-1296,-1026,768
929029,1688,943,505,15600,-1380,-4860,-1296,159,-221
929039,1686,939,507,15976,-1116,-4236,-1296,1654,-1021
929049,1687,947,495,16700,-940,-4072,-1312,2891,-885
929059,1685,946,499,16572,-160,-4648,-1296,3098,-52
929069,1687,952,522,16568,64,-5504,-1296,2155,482
929079,1687,951,522,16040,-84,-5176,-1264,689,936
929089,1688,980,507,15744,-636,-5388,-1296,-4,767
929099,1687,969,503,15816,-496,-5584,-1280,344,133
929109,1688,1044,507,16156,-396,-5516,-1296,1220,-558
929119,1687,1123,510,16296,-572,-5388,-1296,1786,-481
929129,1685,1075,517,16264,-408,-5096,-1280,1598,120
929139,1685,1067,521,16184,-628,-5316,-1296,914,621
929149,1687,1005,509,15756,-812,-5680,-1312,555,475
929159,1690,1047,509,15720,-880,-5720,-1280,781,-22
929169,1689,998,510,16008,-988,-5156,-1264,1087,-553
929179,1687,1053,521,16300,-1592,-4792,-1312,835,-747
929189,1689,890,509,16284,-1824,-5004,-1312,965,-590
929199,1685,874,505,16368,-1508,-4788,-1312,1694,-337
929209,1685,909,503,16404,-800,-5604,-1248,2647,-83
929219,1687,1001,521,15944,-460,-5780,-1296,3304,-17
929229,1687,924,523,16308,-892,-4360,-1280,3454,-311
929239,1690,811,501,16176,-768,-3940,-1280,3222,-193
929249,1687,827,499,15860,-256,-5652,-1312,2787,-174
929259,1685,937,508,16036,156,-5804,-1312,2342,-332
929269,1688,995,520,16124,-168,-4952,-1296,1910,-582
929279,1686,995,521,16124,-844,-5356,-1296,1204,-448
929289,1685,855,567,16180,-940,-5692,-1312,756,-263
929299,1679,867,503,16160,-456,-5152,-1264,1120,96
929309,1686,867,507,16096,-216,-5748,-1312,1565,290
929319,1685,878,505,15936,-196,-5780,-1296,1704,180
929329,1685,919,489,15928,-148,-5048,-1296,1415,107
929339,1685,871,519,16084,-208,-4656,-1312,1105,9
929349,1686,877,506,16216,-408,-4448,-1296,674,50
929359,1686,853,504,16276,16,-4796,-1264,661,101
929369,1687,878,505,16264,364,-4956,-1312,954,5
929379,1684,861,501,16232,592,-5444,-1296,1026,110
929389,1687,815,495,16220,800,-5352,-1296,652,479
929399,1687,785,507,16160,588,-5508,-1264,-136,758
929409,1685,847,522,16016,372,-5496,-1296,-1245,926
929419,1688,885,509,15800,128,-5176,-1344,-1434,756
929429,1686,970,507,15820,84,-5224,-1296,-577,178
929439,1687,973,505,16004,492,-5312,-1264,529,-56
929449,1686,991,506,16208,1168,-5396,-1280,1707,235
929459,1688,967,503,16260,1600,-5712,-1264,1450,620
929469,1686,938,504,16124,1580,-5192,-1312,357,942
929479,1685,888,505,16064,1680,-4976,-1296,-753,1015
929489,1687,803,507,16292,1396,-4988,-1296,-1479,842
929499,1690,840,505,16388,1044,-4904,-1280,-1883,580
929509,1685,842,501,16356,1024,-4024,-1312,-1427,562
929519,1687,915,503,16520,1080,-4552,-1312,-924,854
929529,1686,998,507,16184,876,-5688,-1280,-1211,1047
929539,1687,981,504,15996,948,-5464,-1328,-1441,950
929549,1685,937,506,16036,896,-4952,-1280,-1110,655
929559,1686,887,477,16132,1168,-5612,-1280,-1086,316
929569,1685,875,506,16224,1240,-5596,-1280,-1787,479
929579,1687,799,507,16272,1496,-4320,-1296,-2514,1031
929589,1687,793,509,16340,1780,-3560,-1296,-2485,1172
929599,1691,1235,505,16724,2080,-4676,-1312,-2963,857
929609,1689,1298,503,16868,2092,-5268,-1280,-4236,475
929619,1689,1116,504,16876,2220,-5072,-1296,-5023,648
929629,1687,1000,511,15976,1976,-5904,-1280,-5252,1309
929639,1687,979,510,15300,1812,-6704,-1296,-4543,1751
929649,1689,951,490,14956,1816,-6380,-1232,-3097,1272
929659,1677,931,509,15516,2004,-5240,-1280,-1447,872
929669,1639,928,507,16576,1920,-5632,-1296,-1120,225
929679,1685,937,503,17892,788,-4772,-1296,-2418,-662
929689,1695,935,510,17540,-140,-2640,-1312,-3418,220
929699,1689,939,506,16488,-72,-3636,-1296,-2540,1921
929709,1683,938,501,16064,160,-6344,-1280,-1633,2062
929719,1687,941,508,15556,588,-7744,-1296,-1514,1008
929729,1687,937,503,16180,992,-7684,-1296,-1809,325
929739,1687,937,519,16616,872,-7844,-1280,-2819,519
929749,1685,941,524,16892,472,-7680,-1248,-3797,1179
929759,1684,935,510,17032,-400,-6316,-1280,-3761,2049
929769,1687,939,518,17132,-856,-5088,-1280,-2512,2433
929779,1689,938,519,16808,-1056,-4576,-1296,-967,2472
929789,1686,935,549,16864,-832,-4084,-1312,392,2649
929799,1683,937,507,16904,-416,-4672,-1280,340,2757
929809,1690,936,507,16760,-196,-4768,-1296,-360,2428
929819,1686,939,539,16756,-112,-4504,-1312,-1001,2432
929829,1689,937,522,16824,-292,-5008,-1264,-1649,2710
929839,1688,935,503,16796,-152,-5016,-1312,-1480,2883
929849,1687,937,538,17032,568,-4856,-1280,211,2332
929859,1687,939,495,17456,1752,-4668,-1296,2036,2131
929869,1687,939,501,17648,3060,-5088,-1296,2585,2301
929879,1689,935,501,18056,3932,-4240,-1296,2606,2630
929889,1683,941,499,17684,4016,-4084,-1280,1871,3746
929899,1689,939,511,19088,2836,-5360,-1280,-200,2704
929909,1687,936,534,19316,3316,-2020,-1264,-2377,2236
929919,1687,937,527,19016,2172,-3672,-1264,-3961,2580
929929,1687,953,543,19636,1528,-2640,-1280,-4672,3174
929939,1685,936,533,19756,-260,-2708,-1296,-4553,3432
929949,1687,937,521,19528,-728,-3044,-1280,-4026,3710
929959,1687,936,501,19392,-1392,-3712,-1264,-3075,3907
929969,1685,937,483,18856,-1824,-4416,-1264,-2389,4192
929979,1683,937,485,18520,-1732,-5056,-1248,-2026,4273
929989,1687,935,476,18556,-1552,-4812,-1248,-1395,4041
929999,1687,938,489,18584,-820,-4524,-1280,-288,3592
930009,1685,933,493,18596,864,-4700,-1280,541,3104
930019,1683,939,491,18376,1520,-5288,-1280,-435,3514
930029,1685,937,495,18228,1044,-4020,-1280,-3387,4635
930039,1689,937,484,17596,-156,-3064,-1312,-6821,5378
930049,1687,936,493,17044,-1184,-2948,-1264,-8486,4850
930059,1682,939,493,16904,-1924,-2560,-1280,-8032,3121
930069,1683,939,503,17656,-2256,-2868,-1264,-6705,1439
930079,1684,941,524,18836,-2008,-2632,-1280,-5216,619
930089,1685,947,510,20196,-1536,-3416,-1280,-4224,248
930099,1685,953,506,20736,-956,-4056,-1296,-3856,761
930109,1685,917,505,21200,44,-3424,-1296,-3590,2098
930119,1685,924,503,20908,848,-3252,-1264,-3713,3234
930129,1683,909,503,19964,2160,-3436,-1264,-4080,3846
930139,1685,879,500,19848,3476,-3040,-1280,-4689,4135
930149,1687,928,506,19396,3560,-3924,-1296,-6876,3889
930159,1685,924,501,19052,3772,-2384,-1264,-9928,3257
930169,1687,925,494,18092,4388,-1172,-1248,-10851,2817
930179,1687,967,503,18248,4024,-3760,-1264,-10602,1255
930189,1687,973,505,19528,3336,-5628,-1248,-10931,-1099
930199,1688,957,495,21480,3332,-3500,-1248,-11181,-1748
930209,1685,953,499,22624,5068,-1568,-1280,-9710,-692
930219,1687,997,507,21020,7148,-1448,-1280,-6086,1579
930229,1685,949,517,19276,7956,-2444,-1312,-3122,4139
930239,1672,949,519,18068,8060,-2600,-1280,-3037,6025
930249,1685,956,509,17032,7572,-1984,-1248,-4938,6599
930259,1685,935,505,16372,7160,-624,-1296,-7174,5667
930269,1683,928,494,16184,6824,208,-1248,-8524,3600
930279,1685,927,499,15816,6416,100,-1296,-8512,1501
930289,1685,928,500,16236,6680,732,-1296,-7674,305
930299,1687,935,502,16668,7052,656,-1248,-6498,607
930309,1685,939,508,17084,7244,1180,-1264,-5695,2050
930319,1685,936,509,17032,7376,1780,-1264,-5239,3671
930329,1685,937,507,16356,7760,2284,-1296,-4344,4990
930339,1690,927,504,15408,7660,2476,-1280,-3282,5987
930349,1684,941,524,12996,6984,3288,-1296,-1694,7226
930359,1671,937,522,11948,7060,4088,-1296,1039,7407
930369,1675,935,475,12000,9836,7288,-1264,3458,8900
930379,1695,941,473,12728,12288,5732,-1280,4729,10037
930389,1677,939,507,13184,12100,-660,-1296,6379,5770
930399,1679,939,519,13488,10260,-5928,-1312,2208,-1680
930409,1683,939,551,13212,9092,-3756,-1264,-4554,-6092
930419,1688,941,539,12712,7568,2008,-1232,-8474,-4834
930429,1678,937,501,12076,5704,6504,-1248,-5399,400
930439,1679,939,491,12092,2912,8040,-1280,824,6068
930449,1685,936,487,12652,3184,7508,-1280,9037,9529
930459,1687,938,482,11536,5620,4660,-1280,17319,10258
930469,1688,940,486,9860,8980,-180,-1264,20586,9509
930479,1685,939,502,8816,12372,-3932,-1280,19584,7366
930489,1679,951,506,8688,14568,-6312,-1280,15152,5029
930499,1679,939,521,8576,15868,-6868,-1264,8223,3244
930509,1683,936,524,9112,15108,-5300,-1280,941,1124
930519,1681,937,506,9516,12360,-1012,-1280,-2727,-152
930529,1687,936,500,8500,11480,-412,-1280,-1296,-478
930539,1687,935,495,9232,9292,436,-1280,-229,-669
930549,1687,937,498,10112,8864,328,-1264,2503,-220
930559,1685,939,495,9880,8224,-140,-1312,3980,864
930569,1684,937,503,9440,8440,28,-1280,4266,2277
930579,1683,937,535,9012,9860,528,-1296,5059,3296
930589,1686,937,503,8772,11180,-1168,-1280,5911,2956
930599,1687,939,507,9320,11424,-2196,-1296,5398,1337
930609,1687,936,517,9948,10668,-2844,-1280,3149,-295
930619,1685,937,511,10052,9596,-1236,-1280,-103,-783
930629,1682,937,505,10284,8580,1120,-1264,-857,-45
930639,1687,937,501,10488,8836,2416,-1296,407,937
930649,1688,944,505,10572,9380,1644,-1264,3152,1338
930659,1688,937,501,10984,9264,-628,-1312,4365,652
930669,1687,937,507,11548,9364,-1416,-1280,2880,-722
930679,1687,938,509,11920,9164,-388,-1296,1214,-1586
930689,1686,943,504,11984,9072,568,-1296,1231,-1607
930699,1686,939,503,11924,8672,552,-1280,2186,-1032
930709,1706,938,501,12152,8904,100,-1296,2898,-493
930719,1687,938,502,12668,8564,-400,-1280,2870,-572
930729,1687,939,507,12644,8464,-324,-1264,2164,-893
930739,1687,937,505,12800,8084,-296,-1296,1173,-1037
930749,1683,937,506,13072,7816,-104,-1280,518,-1166
930759,1687,939,505,13444,7564,448,-1280,492,-1357
930769,1687,939,506,13468,7156,420,-1280,721,-1377
930779,1685,937,505,13764,6852,244,-1280,830,-1449
930789,1687,937,504,13760,6896,480,-1264,1117,-1412
930799,1685,937,505,13764,7016,500,-1280,1593,-1319
930809,1684,938,506,13712,6900,252,-1280,1545,-1057
930819,1684,937,488,13684,7220,360,-1264,1128,-798
930829,1684,938,505,13332,7540,36,-1312,794,-603
930839,1687,937,503,13168,7592,-388,-1248,664,-889
930849,1687,938,503,13252,7160,-904,-1248,136,-1659
930859,1686,937,502,13356,6516,-1216,-1280,-795,-2337
930869,1685,939,503,13300,6104,-468,-1264,-1463,-2495
930879,1684,941,498,13616,5868,-264,-1312,-1377,-2368
930889,1686,939,503,13408,5608,32,-1280,-1192,-2019
930899,1685,938,504,13532,5304,-188,-1328,-995,-1542
930909,1669,939,505,13256,5180,116,-1280,-922,-1161
930919,1686,938,507,13204,4396,-164,-1264,-700,-1215
930929,1687,937,503,13148,4368,232,-1248,37,-1583
930939,1687,941,504,12944,4496,180,-1312,1502,-1829
930949,1687,951,507,12552,4272,-400,-1296,2799,-1826
930959,1685,939,504,12424,4360,-580,-1264,3315,-1650
930969,1685,939,502,12692,4340,-1008,-1248,2950,-1404
930979,1685,939,508,13000,3944,-1192,-1232,2027,-1514
930989,1687,940,505,13520,4104,-864,-1280,1507,-1927
930999,1691,939,505,13844,4344,-356,-1296,2078,-2385
931009,1686,939,506,14200,4380,-576,-1296,2665,-2689
931019,1687,938,504,14376,4304,-784,-1280,2131,-2560
931029,1688,941,505,14600,4184,-692,-1280,721,-2128
931039,1685,939,503,14828,4052,-764,-1280,-121,-2220
931049,1687,985,505,15184,3276,-1360,-1280,0,-3154
931059,1693,935,503,15776,2892,-1716,-1328,205,-4393
931069,1689,947,505,16256,2236,-1936,-1312,119,-5189
931079,1687,935,504,16544,2048,-1940,-1280,148,-4905
931089,1687,939,503,16920,2328,-1488,-1296,734,-3821
931099,1687,939,504,17024,2248,-2004,-1312,1670,-2637
931109,1688,938,503,16740,1952,-2312,-1312,2332,-1681
931119,1686,939,477,16360,2280,-1716,-1280,2759,-918
931129,1687,940,503,15748,2832,-1752,-1280,3257,-508
931139,1704,939,502,14868,3460,-1704,-1296,3336,-306
931149,1675,940,503,13892,3836,-1796,-1296,2652,-164
931159,1687,938,503,13004,3936,-2604,-1296,1395,-295
931169,1685,941,505,12308,3432,-2576,-1280,-162,-537
931179,1703,939,509,11420,3056,-1492,-1280,-1811,-217
931189,1687,983,508,10268,2756,-312,-1296,-2510,612
931199,1687,938,505,9104,3264,908,-1328,-1534,1605
931209,1689,935,503,8464,3588,320,-1312,875,1530
931219,1691,940,531,12736,420,-5204,-1296,2670,-3208
931229,1699,921,553,31660,-3920,-11004,-1296,-1679,-16398
931239,1700,943,391,32767,-3428,-16652,-1280,-8543,-32768
931249,1675,937,518,32767,-7208,-13132,-1296,-15608,-32768
931259,1667,941,581,32767,-10300,-1500,-1312,-22042,-15450
931269,1675,939,411,16268,-5960,14376,-1312,-8107,25146
931279,1693,963,491,4416,2604,12984,-1264,12056,32767
931289,1691,949,524,-1056,3248,432,-1280,28129,32767
931299,1701,943,525,10284,7884,-14636,-1296,32767,32767
931309,1679,941,524,16572,3536,-12596,-1280,16170,29364
931319,1683,950,537,9604,-2428,-17376,-1280,187,-1582
931329,1687,935,463,13808,6072,-5200,-1296,-16163,-25298
931339,1689,937,494,17072,564,3712,-1264,-19381,-29994
931349,1690,943,533,4556,19784,-19516,-1296,-28860,-32768
931359,1683,935,523,15952,-1052,15484,-1328,-23810,-31128
931369,1683,935,529,24120,704,3056,-1312,-7967,-15880
931379,1684,937,509,27788,-2348,-444,-1328,2952,-1741
931389,1683,939,498,25256,-2752,-3304,-1296,7550,10042
931399,1685,941,490,19884,-512,-3836,-1312,7833,16512
931409,1684,943,502,15072,1812,-4192,-1344,6969,18126
931419,1683,942,510,12752,4008,-3848,-1312,8054,15337
931429,1687,942,504,11580,4388,-4856,-1280,7407,8572
931439,1687,939,507,12084,4612,-5164,-1296,4020,789
931449,1687,939,495,13188,4296,-4476,-1312,-1064,-5651
931459,1685,937,502,14048,2980,-4252,-1312,-5739,-8974
931469,1683,937,491,16140,2324,-3124,-1312,-8261,-8772
931479,1687,935,507,19852,2360,-960,-1280,-8841,-6420
931489,1695,939,520,21480,1620,-912,-1296,-5943,-3508
931499,1685,937,494,17880,336,-1880,-1344,-1215,150
931509,1679,939,504,14464,340,-1172,-1312,2550,5002
931519,1695,939,505,15056,2260,-680,-1328,3180,8193
931529,1689,939,509,17348,3556,-564,-1280,2093,6986
931539,1689,941,505,16140,3188,-2764,-1328,1984,1549
931549,1684,938,501,13592,2192,-3964,-1312,2961,-3749
931559,1677,921,495,13880,2584,-4128,-1312,2880,-5675
931569,1687,936,504,17020,3868,-2504,-1296,682,-4836
931579,1687,939,509,18504,3760,-2440,-1328,-1204,-2678
931589,1684,939,503,17200,2944,-2120,-1296,-1258,-85
931599,1684,939,500,16236,3236,-1524,-1296,1140,1514
931609,1685,937,493,16132,3688,-2568,-1280,3161,1307
931619,1685,999,506,15748,4052,-3444,-1328,2737,191
931629,1685,939,508,15444,4448,-3176,-1328,325,-548
931639,1686,938,503,15092,4712,-3012,-1312,-1419,-1226
931649,1679,933,501,15328,4460,-3576,-1296,-1054,-2442
931659,1683,941,503,15936,4272,-4228,-1312,-19,-3330
931669,1685,939,505,16336,3912,-4404,-1280,-138,-2771
931679,1685,940,505,16424,4076,-3720,-1312,-999,-1143
931689,1687,938,502,15564,4576,-2836,-1312,-886,680
931699,1641,937,503,15172,5912,-1992,-1312,1052,1423
931709,1687,891,503,15800,6680,-3504,-1280,2889,181
931719,1685,937,503,16044,6032,-5760,-1280,1706,-1950
931729,1687,937,501,15232,5188,-4968,-1328,-1238,-2099
931739,1685,939,503,14648,5548,-2772,-1312,-2306,-489
931749,1683,937,501,14520,6096,-1316,-1312,-415,856
931759,1687,933,501,14520,6768,-520,-1312,2047,1225
931769,1684,939,481,14872,8560,-896,-1312,4545,275
931779,1689,939,505,15964,9504,-2748,-1296,6691,-2744
931789,1685,920,501,16764,9596,-5000,-1264,6657,-5842
931799,1684,938,499,17764,10584,-4400,-1296,4411,-6548
931809,1687,939,506,18780,10476,-4528,-1280,1709,-5111
931819,1686,939,505,17744,9572,-3840,-1344,-1190,-1607
931829,1687,969,505,16676,8748,-2484,-1296,-386,1064
931839,1688,941,504,16364,7252,-4344,-1296,1489,903
931849,1686,940,505,15408,5764,-5792,-1312,923,-318
931859,1687,939,504,15000,4920,-5016,-1360,-563,-1239
931869,1686,1000,501,15516,4992,-4124,-1312,-804,-2224
931879,1687,937,494,15940,4844,-3980,-1328,491,-3025
931889,1685,939,503,16572,4736,-3852,-1328,2052,-3241
931899,1685,939,499,16584,4112,-4840,-1312,2878,-3055
931909,1685,939,500,16520,3792,-5156,-1312,2375,-1938
931919,1685,939,497,16628,4136,-4800,-1312,2309,-1165
931929,1684,939,492,16856,4828,-4896,-1280,3518,-1345
931939,1686,937,499,16820,4836,-5200,-1296,3458,-1170
931949,1683,927,503,16852,4928,-4632,-1344,1527,-60
931959,1685,941,507,16728,4640,-4296,-1280,-1206,890
931969,1683,938,507,16212,4308,-3196,-1328,-2976,1100
931979,1687,937,505,16004,3888,-3240,-1312,-3289,539
931989,1685,938,503,15568,2256,-4428,-1280,-3206,-1180
931999,1681,938,503,15464,1328,-4292,-1312,-3897,-2317
932009,1691,937,488,15564,864,-3472,-1312,-3962,-2616
932019,1679,937,499,15720,612,-3784,-1328,-2865,-2617
932029,1686,941,494,15556,644,-4636,-1296,-1338,-2550
932039,1683,937,503,15536,832,-5724,-1264,-55,-2336
932049,1685,939,499,15804,1396,-5792,-1296,526,-1706
932059,1686,939,499,15932,1692,-6656,-1344,264,-735
932069,1687,939,499,16056,676,-8052,-1296,-1342,-658
932079,1683,941,505,16012,-236,-6688,-1328,-4197,107
932089,1691,942,505,15552,-1132,-4264,-1296,-5747,1399
932099,1686,938,503,15404,-2048,-3944,-1296,-5172,1826
932109,1657,941,498,14808,-2844,-4112,-1312,-4004,1094
932119,1655,937,495,14752,-2636,-4180,-1328,-1573,-109
932129,1685,939,491,15132,-2828,-4640,-1312,600,-1506
932139,1685,941,489,15992,-2616,-4796,-1312,1882,-2311
932149,1686,939,503,16196,-2512,-4872,-1296,1910,-1984
932159,1683,941,500,16044,-2096,-3180,-1312,2592,-636
932169,1683,943,503,16080,-1424,-2776,-1312,4195,893
932179,1683,939,503,15580,-1644,-5356,-1296,5184,809
932189,1687,939,473,15580,-1848,-6172,-1344,4368,-68
932199,1687,938,503,15940,-2024,-5084,-1312,2843,-818
932209,1684,940,517,16028,-2108,-4480,-1312,2284,-1245
932219,1692,943,487,16072,-2088,-4340,-1344,2900,-1202
932229,1689,939,501,15908,-1844,-5172,-1296,3856,-936
932239,1685,948,507,15580,-2036,-6448,-1312,4006,-794
932249,1685,943,467,16016,-1548,-5496,-1312,3928,-585
932259,1683,942,475,16692,-1032,-4732,-1312,4296,-443
932269,1678,940,494,17000,-676,-4608,-1328,4242,-442
932279,1685,935,502,16860,352,-4044,-1296,4068,-115
932289,1684,936,499,16928,1028,-3500,-1296,3809,462
932299,1685,935,503,16644,1276,-4080,-1312,2859,804
932309,1687,932,507,16544,1264,-4844,-1296,1058,636
932319,1685,931,521,16200,348,-5724,-1312,-1569,-148
932329,1685,935,508,15928,-340,-5276,-1328,-3876,-942
932339,1687,935,492,15724,280,-4092,-1296,-3338,-935
932349,1687,939,489,16112,992,-5892,-1312,-703,-677
932359,1685,939,492,16524,1560,-7380,-1328,900,-908
932369,1685,941,499,16760,1820,-6980,-1296,659,-340
932379,1685,939,499,17040,1420,-5440,-1280,-656,956
932389,1685,943,501,16352,656,-4948,-1296,-1957,1819
932399,1686,939,505,15748,-416,-5452,-1312,-2866,1595
932409,1687,939,500,15428,-1584,-5208,-1296,-3214,709
932419,1685,939,499,15480,-2700,-4392,-1328,-3181,-141
932429,1685,935,499,15824,-2948,-3904,-1312,-1997,-660
932439,1677,937,499,16004,-3072,-4648,-1312,-430,-788
932449,1685,939,503,16328,-2964,-4916,-1344,643,-372
932459,1685,939,507,16264,-2560,-4740,-1312,1311,296
932469,1715,990,503,16092,-2156,-5316,-1296,1542,786
932479,1685,939,491,15900,-1528,-5308,-1312,1288,801
932489,1685,944,507,15888,-1380,-5636,-1344,397,400
932499,1685,946,508,15896,-1560,-5204,-1328,-680,6
932509,1687,937,505,16112,-2028,-4888,-1312,-1515,-47
932519,1685,933,501,16244,-2048,-4520,-1328,-1398,90
932529,1686,889,499,16404,-1312,-4388,-1312,-186,50
932539,1683,925,503,16468,-652,-4256,-1280,943,266
932549,1690,968,507,16476,-244,-4832,-1328,1066,592
932559,1685,949,509,16148,-8,-5044,-1328,439,616
932569,1672,939,499,16148,-156,-4892,-1296,-268,297
932579,1683,950,493,15652,248,-4880,-1312,-168,35
932589,1687,938,475,16092,1084,-4816,-1312,836,-289
932599,1683,953,507,16400,1432,-5152,-1328,608,-139
932609,1687,917,490,16432,1276,-5264,-1296,-136,76
932619,1685,941,503,16264,1040,-5148,-1344,-1498,277
932629,1683,923,493,16244,664,-4908,-1296,-1975,-117
932639,1686,933,473,16328,352,-3820,-1312,-1856,-153
932649,1685,928,489,16092,496,-3976,-1296,-889,-44
932659,1693,923,495,16628,732,-4156,-1328,-660,-32
932669,1685,939,505,16104,924,-4828,-1312,-806,-305
932679,1685,949,505,16284,892,-5960,-1312,-1572,-644
932689,1677,952,493,16252,740,-5876,-1280,-2409,-728
932699,1688,947,500,16064,704,-5820,-1312,-2435,-471
932709,1685,943,495,16184,824,-6248,-1296,-2100,-243
932719,1687,947,488,16016,596,-5208,-1312,-2042,176
932729,1663,968,485,16388,588,-4848,-1312,-2381,478
932739,1683,933,495,16276,4,-4828,-1328,-3024,30
932749,1687,943,491,16404,-576,-4660,-1312,-3517,-612
932759,1689,934,491,16436,-1476,-4636,-1312,-3332,-1036
932769,1689,937,501,16124,-1524,-5544,-1312,-2317,-950
932779,1681,935,503,15684,-1060,-6856,-1312,-1178,-276
932789,1684,937,510,15616,-656,-7520,-1296,-409,208
932799,1683,941,511,15712,-104,-8784,-1312,-929,249
932809,1683,941,519,15884,-216,-8292,-1344,-2334,455
932819,1685,1078,520,16080,-552,-6776,-1328,-3403,917
932829,1685,939,508,16120,-852,-6488,-1312,-3581,1194
932839,1685,941,519,16104,-1712,-6664,-1360,-3588,1160
932849,1684,937,511,16204,-2232,-6260,-1296,-3822,1307
932859,1685,939,509,16192,-2388,-5788,-1328,-3578,1547
932869,1685,939,509,16216,-2360,-5756,-1328,-3137,1815
932879,1682,937,511,16228,-2316,-5396,-1312,-2581,2061
932889,1685,937,549,15940,-2060,-5156,-1296,-1914,2276
932899,1687,938,493,15844,-1392,-4712,-1328,-905,2278
932909,1689,937,505,15940,-852,-4596,-1312,82,1909
932919,1694,941,501,16140,-196,-4672,-1280,664,1580
932929,1685,942,501,16312,356,-5288,-1312,1119,1331
932939,1689,941,489,16724,1416,-4472,-1296,1183,1472
932949,1683,937,503,16324,1536,-5280,-1296,1701,1852
932959,1688,937,506,16740,1664,-5780,-1312,249,1827
932969,1682,938,509,16640,896,-5720,-1280,-1572,2031
932979,1684,951,519,16412,444,-5568,-1344,-3217,1923
932989,1685,940,507,17056,-560,-5784,-1280,-4653,1551
932999,1685,941,523,16868,-2504,-5092,-1360,-5101,1556
933009,1688,941,538,17100,-2512,-4620,-1312,-4170,1742
933019,1685,941,525,17048,-2288,-4048,-1344,-1336,2064
933029,1695,939,541,17504,-1780,-4372,-1312,1997,2480
933039,1687,939,505,17492,-1224,-5184,-1328,3276,2927
933049,1687,937,487,17440,-104,-4648,-1296,3027,3215
933059,1684,940,495,17240,352,-5516,-1344,2364,2812
933069,1685,939,493,17992,728,-5048,-1312,1457,1898
933079,1686,943,489,18604,1128,-4520,-1296,1474,1320
933089,1687,939,495,19596,1756,-4824,-1312,1896,1101
933099,1681,931,503,20644,1640,-4304,-1328,2199,1542
933109,1689,861,489,21252,996,-3636,-1360,1290,2205
933119,1687,939,487,21608,484,-2484,-1280,4,3366
933129,1684,939,477,21124,508,-2728,-1296,-427,4104
933139,1690,938,477,20908,1260,-4400,-1296,-920,3713
933149,1683,943,493,20396,1236,-4820,-1312,-1461,3279
933159,1687,939,491,20684,432,-4188,-1328,-2351,3676
933169,1683,938,494,20020,-208,-6072,-1296,-4703,4341
933179,1688,939,494,19260,-1564,-6276,-1360,-7267,4953
933189,1683,937,501,18376,-3664,-5996,-1328,-9232,5582
933199,1637,937,502,17900,-5652,-6744,-1312,-11157,5852
933209,1678,942,503,17904,-7108,-6508,-1312,-12127,5480
933219,1677,941,495,18112,-8452,-7128,-1280,-11521,4567
933229,1677,951,487,19956,-8456,-5000,-1280,-9308,3090
933239,1689,947,484,21240,-6748,-1936,-1344,-4100,3110
933249,1685,893,507,22052,-4044,-3616,-1312,1435,4524
933259,1689,907,495,21876,-1560,-5536,-1344,2553,5136
933269,1685,911,488,21360,-312,-5460,-1328,1772,4650
933279,1645,958,525,21096,-1280,-8264,-1312,-1448,2308
933289,1677,837,499,20864,-2892,-7696,-1296,-6399,1633
933299,1689,583,462,22524,-332,-4644,-1328,-8170,1405
933309,1685,908,471,24108,1020,-5124,-1312,-5468,1537
933319,1685,1123,473,24064,3792,-6368,-1328,-1033,2284
933329,1687,1131,475,24760,6356,-5580,-1328,1910,4371
933339,1676,1166,485,25168,7560,-4312,-1296,1677,7220
933349,1685,1091,496,23504,8388,-3960,-1328,-985,9452
933359,1687,999,495,21044,8592,-3832,-1312,-3540,10444
933369,1689,936,499,19152,8384,-2688,-1296,-5151,10506
933379,1669,879,508,17884,9144,-968,-1296,-5040,10208
933389,1687,857,499,17136,9524,4,-1280,-4124,9453
933399,1687,837,499,16216,9624,544,-1312,-3348,9069
933409,1660,856,485,15544,9396,1460,-1312,-3519,9468
933419,1688,891,501,14392,9792,2792,-1344,-4000,10429
933429,1683,927,503,13028,9888,2608,-1328,-2981,10927
933439,1684,952,507,12020,10088,3536,-1312,-1870,11556
933449,1683,958,505,10868,10632,4768,-1312,228,11606
933459,1675,949,521,9792,10520,3692,-1280,3573,9623
933469,1669,952,507,9256,10960,1896,-1312,6493,5210
933479,1637,943,503,9384,10872,328,-1328,7059,1180
933489,1683,940,495,9900,11088,464,-1312,5341,-1271
933499,1677,937,508,10108,10988,1364,-1312,3616,-1844
933509,1675,939,511,10064,10184,1584,-1328,4305,-1904
933519,1676,939,500,10524,9628,1336,-1296,7301,-1983
933529,1683,939,493,10908,8344,856,-1328,8626,-1183
933539,1679,944,493,10700,7352,228,-1280,7807,951
933549,1679,937,476,10376,8436,2172,-1280,7143,3450
933559,1683,939,476,9716,9708,916,-1328,7733,5217
933569,1686,939,490,8932,11660,-260,-1264,7688,5778
933579,1687,938,499,8032,12516,-1260,-1296,6172,5058
933589,1689,939,501,7480,12860,-2100,-1328,3594,3777
933599,1688,907,505,6916,12028,-2112,-1312,208,2660
933609,1677,937,501,6268,10424,-220,-1296,-2716,1201
933619,1683,936,501,6180,8444,1372,-1296,-2562,385
933629,1681,939,479,5836,7344,2252,-1312,-1042,-272
933639,1685,936,489,5876,6524,3660,-1280,2389,-229
933649,1686,938,488,6140,7020,2932,-1312,6269,6
933659,1683,936,489,6364,8064,1196,-1280,7628,-118
933669,1682,939,498,6356,9068,-72,-1296,6997,-349
933679,1679,939,489,6736,9864,-508,-1312,5045,-298
933689,1679,938,501,7072,10144,-92,-1296,2632,-229
933699,1683,938,499,7200,10016,-596,-1328,366,-167
933709,1683,937,499,7596,9768,-640,-1312,-1169,-335
933719,1685,939,501,7544,8884,-1084,-1312,-2365,-646
933729,1685,939,503,7916,7776,-1132,-1312,-3110,-865
933739,1683,940,500,8080,6848,-472,-1312,-3394,-1169
933749,1683,938,502,8368,6032,12,-1328,-2626,-1682
933759,1685,939,503,8756,5232,80,-1312,-1012,-2460
933769,1688,937,502,9192,4556,232,-1312,975,-2926
933779,1685,939,491,10380,4368,536,-1328,3660,-3244
933789,1684,939,502,11120,4524,784,-1280,7010,-3284
933799,1685,940,499,12388,5548,772,-1296,10573,-3213
933809,1684,939,499,13080,7172,68,-1280,13770,-2925
933819,1690,938,495,13204,8456,-1992,-1312,15805,-2992
933829,1685,949,499,12848,9364,-4352,-1328,14989,-2649
933839,1685,938,493,12776,10132,-5116,-1328,11472,-1670
933849,1683,939,495,13076,10580,-5328,-1296,6812,-308
933859,1687,939,495,13340,10712,-4428,-1344,2721,336
933869,1687,937,495,13004,10092,-3436,-1312,361,59
933879,1685,941,491,12348,9704,-2436,-1296,-915,-52
933889,1700,939,493,12068,9772,-2120,-1296,-2049,50
933899,1687,939,479,12024,8788,-2940,-1344,-4008,-348
933909,1683,939,493,12512,7448,-3360,-1280,-7011,-1483
933919,1685,939,499,12984,6176,-2628,-1312,-9257,-2777
933929,1685,939,499,13664,4960,-1704,-1296,-10252,-3430
933939,1688,941,501,13880,3820,-484,-1296,-10381,-3128
933949,1685,939,504,14168,3208,1260,-1312,-8923,-2087
933959,1685,941,501,14064,2380,1524,-1312,-6284,-1270
933969,1686,940,495,13528,2028,1000,-1312,-3470,-911
933979,1685,939,485,12892,2044,652,-1344,-844,-1045
933989,1689,939,495,12260,2576,-112,-1296,1195,-1519
933999,1703,940,499,11992,3208,-680,-1344,2210,-2023
934009,1686,940,501,11804,3720,-1560,-1344,2339,-2362
934019,1685,942,504,11900,3608,-2300,-1328,1731,-2407
934029,1684,940,499,12520,2928,-2536,-1344,911,-2164
934039,1661,947,519,19948,696,-5420,-1296,-1087,-4734
934049,1694,935,548,32060,-1224,-3188,-1312,-5766,-11219
934059,1689,939,520,32767,-7584,-20456,-1312,-6755,-32768
934069,1671,937,431,32767,-12292,-9716,-1328,-13864,-32768
934079,1661,940,467,29056,-8028,7544,-1328,-9818,-6429
934089,1693,936,439,12788,-1668,12072,-1328,8373,23720
934099,1679,925,499,2568,4388,8140,-1328,23831,32767
934109,1691,939,565,2732,7100,1012,-1312,30765,32767
934119,1705,951,533,15492,7816,-11352,-1328,23898,32767
934129,1677,947,471,19392,4876,-18976,-1328,5070,11495
934139,1671,940,503,11912,6052,-6564,-1312,-9886,-17167
934149,1682,936,501,12796,2608,-20,-1328,-13303,-26475
934159,1693,938,509,3676,9836,-13460,-1344,-20046,-32768
934169,1689,933,493,11288,-2268,9576,-1312,-19073,-30917
934179,1655,937,493,20172,-528,7540,-1312,-5779,-18005
934189,1682,937,486,25200,-872,-456,-1328,6202,-7635
934199,1677,941,500,24520,1004,-4944,-1328,11699,1445
934209,1677,939,499,21500,3028,-5144,-1312,9879,8547
934219,1685,941,507,16432,4104,-4052,-1312,6813,12937
934229,1683,949,490,12472,4424,-5480,-1328,5357,12723
934239,1685,947,491,10476,4232,-5080,-1312,2980,8838
934249,1683,941,499,11952,4948,-4404,-1312,977,1583
934259,1684,939,488,14524,5180,-2752,-1328,-1008,-6266
934269,1717,938,500,15772,4640,-2996,-1328,-3342,-10613
934279,1685,937,500,16692,3812,-2432,-1296,-4541,-10647
934289,1685,937,503,16780,2760,-2044,-1328,-3692,-7057
934299,1691,937,494,17272,3452,-1140,-1312,-1160,-1941
934309,1685,938,493,17452,5212,-876,-1344,3312,1909
934319,1683,941,496,16800,5884,-2860,-1312,5314,3412
934329,1687,941,501,15272,5396,-4428,-1344,3618,2867
934339,1685,939,499,14396,5676,-4152,-1328,875,1239
934349,1687,940,494,14860,6072,-3820,-1312,-678,-1661
934359,1683,940,493,14704,6408,-3160,-1312,-592,-3891
934369,1686,940,503,16360,7408,-1748,-1312,1136,-4368
934379,1684,939,494,17632,7360,-2572,-1312,2226,-4718
934389,1683,942,489,16884,7232,-3072,-1344,1856,-3839
934399,1687,939,493,15976,7748,-2784,-1344,587,-1706
934409,1687,939,495,16012,8888,-2856,-1344,123,-760
934419,1684,937,493,15740,9152,-3536,-1296,446,-1587
934429,1683,939,488,15272,9128,-3576,-1312,193,-2541
934439,1685,941,499,15568,8992,-3576,-1296,-699,-3318
934449,1673,939,499,15704,8952,-2812,-1296,-2193,-3515
934459,1687,939,495,15780,8868,-1972,-1312,-2540,-3229
934469,1685,939,499,15868,8832,-2004,-1328,-1103,-3650
934479,1688,943,499,16144,8404,-3236,-1296,383,-4543
934489,1687,940,495,15828,7736,-5028,-1312,30,-5116
934499,1684,939,494,15532,7296,-6008,-1328,-1235,-4888
934509,1683,941,493,15868,7312,-5696,-1344,-2121,-4375
934519,1685,939,495,16412,7344,-5756,-1328,-2550,-4090
934529,1685,939,495,16388,6968,-6252,-1296,-3415,-3665
934539,1681,940,499,16628,6668,-6704,-1312,-4698,-3102
934549,1686,940,493,16536,6728,-6064,-1344,-5229,-2503
934559,1685,939,493,15972,7016,-4960,-1312,-4672,-1633
934569,1683,937,495,16696,8068,-5240,-1312,-3555,-1663
934579,1684,939,491,17260,8064,-6456,-1328,-3353,-2885
934589,1682,946,504,17308,7596,-5768,-1312,-5626,-2183
934599,1684,940,504,16772,7476,-4652,-1344,-8044,-496
934609,1681,939,500,16200,6328,-3444,-1312,-8806,491
934619,1683,941,493,15996,6116,-2904,-1312,-9118,329
934629,1687,939,505,15244,5068,-3916,-1328,-9166,-875
934639,1683,941,487,14728,4412,-4276,-1312,-9499,-2468
934649,1685,938,487,14224,4052,-5532,-1312,-9506,-3684
934659,1687,939,486,14140,4160,-6144,-1296,-9249,-4486
934669,1685,939,491,14460,3560,-7320,-1296,-9211,-4751
934679,1683,939,495,14816,2152,-9184,-1296,-11061,-4634
934689,1679,938,495,14988,1124,-9048,-1296,-13448,-3923
934699,1691,939,495,14840,440,-8588,-1344,-14533,-2728
934709,1683,941,490,14784,-244,-8604,-1312,-13266,-1818
934719,1685,940,486,14844,-1324,-8724,-1312,-11201,-1619
934729,1685,948,495,14804,-2364,-8236,-1312,-9784,-479
934739,1687,940,495,14656,-3320,-7620,-1328,-8556,806
934749,1683,937,495,14712,-3768,-7812,-1312,-6249,521
934759,1686,939,491,14256,-3700,-6728,-1312,-3617,7
934769,1685,942,483,14888,-1980,-5980,-1312,-830,678
934779,1684,939,487,15652,-712,-6980,-1312,1837,-330
934789,1687,940,501,15492,-704,-5212,-1312,2022,-394
934799,1683,939,497,16504,-704,-4036,-1312,-364,1810
934809,1691,941,486,16456,-720,-5024,-1344,-3347,2471
934819,1681,940,494,15584,-520,-3932,-1312,-4184,1829
934829,1684,937,498,16048,-1024,-2928,-1312,-3533,568
934839,1684,939,499,15852,-1756,-4196,-1296,-3382,-586
934849,1684,916,492,16168,-1368,-4780,-1312,-3484,-1492
934859,1684,941,507,16196,-608,-5000,-1312,-2659,-1569
934869,1684,916,493,15744,568,-4628,-1296,-831,-476
934879,1683,939,485,15800,2272,-6372,-1312,1116,-428
934889,1679,939,494,15664,1668,-7816,-1296,216,-535
934899,1685,939,503,16680,428,-6908,-1328,-3366,60
934909,1684,939,499,16336,-988,-5072,-1344,-6576,1106
934919,1685,938,475,15744,-256,-3708,-1296,-4859,1523
934929,1685,939,499,14828,-156,-4328,-1328,-342,1352
934939,1685,939,493,14996,896,-5744,-1344,4180,-26
934949,1683,941,487,15532,2492,-5940,-1312,7438,-1617
934959,1677,903,484,17184,3512,-6704,-1312,7227,-2780
934969,1671,940,494,17444,3348,-5868,-1296,3777,-1537
934979,1685,941,499,17764,2968,-4452,-1328,-966,1691
934989,1685,940,495,16528,2420,-3892,-1312,-3562,3579
934999,1683,939,495,15304,1420,-3748,-1312,-2352,3112
935009,1689,939,488,14804,704,-3732,-1312,-183,1519
935019,1684,941,478,15100,1512,-4744,-1280,2734,-1202
935029,1677,939,483,15472,2748,-5484,-1296,4746,-2770
935039,1683,939,487,16512,3060,-4748,-1344,4217,-2056
935049,1684,937,494,17128,2688,-4100,-1312,1651,253
935059,1685,942,499,16136,1620,-3736,-1344,-993,2125
935069,1683,939,498,15204,412,-3624,-1280,-1374,1920
935079,1684,940,493,14708,-836,-4660,-1328,-524,107
935089,1685,939,495,14636,-1224,-5028,-1280,1001,-2106
935099,1693,939,499,15040,-320,-5180,-1312,4028,-2992
935109,1683,940,456,16632,1020,-5524,-1328,7295,-2978
935119,1687,939,498,17108,1460,-4592,-1312,8459,-1402
935129,1683,939,491,17328,2260,-4116,-1296,7472,902
935139,1685,941,493,17364,3112,-4536,-1264,5548,1670
935149,1689,939,488,16568,3164,-4644,-1312,3241,1138
935159,1686,940,461,16320,2484,-4908,-1296,-29,326
935169,1687,939,493,16080,1188,-4668,-1328,-3429,-888
935179,1685,939,495,16016,-324,-4260,-1328,-5576,-1650
935189,1683,937,501,15952,-1084,-4092,-1328,-5663,-1537
935199,1683,939,501,16108,-1500,-4984,-1344,-4015,-1675
935209,1684,939,500,16200,-1000,-5276,-1296,-1548,-1400
935219,1700,939,493,16332,-104,-5668,-1296,1559,-752
935229,1683,939,491,16292,504,-6472,-1312,2964,-101
935239,1679,938,501,16368,788,-6016,-1312,2196,534
935249,1675,939,490,16104,396,-5840,-1312,255,841
935259,1683,939,503,15720,-520,-6076,-1312,-2536,474
935269,1685,941,494,15512,-1336,-5592,-1312,-4552,-240
935279,1685,941,493,15516,-1628,-5280,-1312,-4112,-570
935289,1683,939,489,15812,-1484,-5224,-1344,-2235,-859
935299,1684,939,492,16440,-892,-5232,-1344,-322,-596
935309,1682,939,504,16816,-412,-5752,-1280,298,-200
935319,1685,939,505,16572,-544,-6280,-1296,-901,136
935329,1683,939,499,16112,-936,-6536,-1312,-2730,590
935339,1683,939,499,15444,-1184,-7072,-1312,-3430,626
935349,1685,941,495,15308,-1408,-6944,-1360,-3047,360
935359,1695,939,507,15804,-984,-5912,-1312,-1695,164
935369,1685,939,517,16276,-1436,-6000,-1328,-446,-266
935379,1685,940,493,16792,-1940,-5612,-1296,-971,30
935389,1685,948,497,16580,-2008,-5416,-1344,-1934,1198
935399,1673,939,497,15964,-1708,-5432,-1296,-1524,1544
935409,1684,862,491,15764,-1276,-4928,-1328,4,1221
935419,1685,939,489,15828,-948,-5056,-1328,973,960
935429,1692,939,492,16064,-816,-5720,-1296,220,642
935439,1684,939,494,16060,-1188,-5564,-1312,-985,414
935449,1677,938,490,16036,-868,-5720,-1328,-1286,469
935459,1684,939,493,15956,292,-5692,-1328,-21,805
935469,1684,939,499,16028,808,-6320,-1312,958,1302
935479,1685,825,499,16304,1020,-6276,-1328,185,1751
935489,1684,939,497,16404,1304,-6476,-1312,-805,1485
935499,1683,939,502,16300,1512,-6444,-1296,-1285,908
935509,1683,940,493,16344,1120,-6424,-1296,-1404,918
935519,1687,939,489,16328,872,-6356,-1312,-1489,1366
935529,1683,940,491,16392,144,-5100,-1280,-1514,1994
935539,1683,947,495,16140,-372,-4516,-1312,-1492,2518
935549,1685,925,495,15664,-672,-4768,-1280,-1515,2364
935559,1698,939,490,15788,-404,-4568,-1296,-981,1739
935569,1682,940,490,16044,284,-4200,-1312,286,992
935579,1679,939,495,16752,592,-4724,-1312,869,603
935589,1684,933,501,17240,568,-4680,-1312,188,890
935599,1683,939,485,17088,1072,-4076,-1312,-228,1511
935609,1683,940,487,16840,1852,-4296,-1328,1092,2011
935619,1684,939,498,16672,2764,-5388,-1312,2160,2005
935629,1683,939,503,16548,2916,-5452,-1280,1861,1870
935639,1679,939,505,16680,2260,-5172,-1296,917,1781
935649,1683,924,505,16428,1276,-6384,-1312,-1601,1790
935659,1683,943,535,16260,84,-5964,-1280,-3858,1847
935669,1683,938,539,16332,-1320,-5100,-1296,-3353,1658
935679,1683,939,525,16548,-1736,-4996,-1328,-1567,1894
935689,1685,940,542,16964,-1176,-5080,-1296,1057,2588
935699,1685,939,573,16980,-2336,-4872,-1328,3059,3736
935709,1685,939,541,17016,-2308,-4712,-1280,3232,4748
935719,1685,1012,505,16192,-1244,-5080,-1312,3607,5477
935729,1679,936,462,15888,1848,-5332,-1312,5510,4930
935739,1669,939,448,16428,3880,-5620,-1312,7014,3284
935749,1682,940,455,17220,4760,-4892,-1328,6870,2157
935759,1685,937,469,18188,4632,-4184,-1312,3920,2405
935769,1683,941,475,18364,3824,-3760,-1312,-539,3338
935779,1687,941,486,18044,3732,-3460,-1344,-3634,4065
935789,1683,939,507,17476,2872,-1864,-1312,-3887,4530
935799,1682,939,494,17372,1332,-2664,-1312,-3108,4523
935809,1685,939,469,16972,392,-3904,-1328,-3143,4381
935819,1684,947,457,16932,520,-3860,-1312,-2132,3740
935829,1683,921,470,16896,1096,-3752,-1296,593,3306
935839,1683,935,496,17024,2096,-4784,-1280,3140,2841
935849,1685,941,507,17352,2416,-4432,-1312,4270,3205
935859,1681,936,518,17648,2492,-3968,-1296,3941,3862
935869,1683,934,482,17716,2652,-4100,-1296,2476,4613
935879,1684,927,475,17428,2404,-4172,-1296,743,4824
935889,1677,935,486,17664,1724,-3140,-1328,-53,4872
935899,1679,946,499,17840,2392,-3592,-1344,308,4102
935909,1683,906,475,17800,2300,-3728,-1296,1735,3323
935919,1685,939,471,18432,2676,-4312,-1328,2961,2722
935929,1679,942,521,19196,3124,-3656,-1312,3640,2535
935939,1684,938,489,19244,3236,-3436,-1296,4655,2495
935949,1681,941,485,19772,5120,-3228,-1280,6098,2372
935959,1687,939,484,19304,6636,-3244,-1328,7783,2817
935969,1682,938,479,18816,7628,-3620,-1328,8293,3778
935979,1683,940,488,18180,7144,-3816,-1344,6645,5253
935989,1684,939,465,18124,5512,-3576,-1312,2426,6076
935999,1673,941,456,17200,3276,-3896,-1312,-3330,6341
936009,1683,941,456,16344,1416,-4064,-1312,-7808,5136
936019,1683,943,462,16336,-636,-4388,-1296,-9884,3209
936029,1661,947,472,17524,-2184,-4708,-1312,-9841,247
936039,1662,946,429,19776,-3196,-3192,-1312,-7705,-2797
936049,1715,942,421,21204,-3836,-3772,-1296,-5250,-4736
936059,1679,922,511,23368,-3880,-2320,-1280,-4942,-4329
936069,1677,915,573,25428,-4132,1524,-1328,-5080,-2152
936079,1686,589,609,25808,-3624,2164,-1328,-5539,-425
936089,1685,571,604,22404,-2632,588,-1312,-5689,3302
936099,1693,502,529,20144,-8,-2148,-1328,-4172,5630
936109,1690,654,446,19364,2560,-4644,-1296,-3782,6256
936119,1681,1301,412,19364,4296,-5608,-1296,-4070,4527
936129,1686,1491,423,19172,3076,-10224,-1296,-6338,786
936139,1679,1175,477,21084,1348,-10096,-1344,-12492,-2837
936149,1681,1031,488,24120,4720,-1636,-1312,-13319,-4802
936159,1685,973,495,24440,7824,-1488,-1312,-9028,-3551
936169,1683,955,494,22016,9436,-6852,-1312,-4917,-253
936179,1691,943,479,20900,12468,-6196,-1296,-2369,4309
936189,1691,943,489,19564,13816,-3172,-1280,-1496,10295
936199,1685,942,477,17352,14016,-2124,-1312,-4293,16704
936209,1683,942,453,13720,13224,-3016,-1328,-9790,20406
936219,1682,855,472,10188,11564,-2580,-1312,-14549,20261
936229,1684,892,500,6440,10172,576,-1296,-17143,17641
936239,1684,940,504,4544,8844,3848,-1312,-16444,13567
936249,1683,951,506,3744,7408,4664,-1280,-12801,8166
936259,1683,943,507,3644,6320,4944,-1328,-9125,4491
936269,1685,938,523,3004,5864,4756,-1296,-6188,2560
936279,1677,935,533,3788,6460,5520,-1296,-2495,2618
936289,1669,893,520,4476,7264,5352,-1296,1716,3213
936299,1686,911,505,4808,7932,4888,-1312,5092,3565
936309,1686,925,507,4964,7916,3024,-1296,7577,2916
936319,1683,923,520,5032,7944,2324,-1328,8810,1747
936329,1683,921,509,5020,8364,3160,-1344,9333,1496
936339,1683,925,499,4328,9132,4688,-1328,10306,2745
936349,1673,926,493,2880,9024,4260,-1312,12768,3966
936359,1675,925,489,2036,9564,3164,-1296,14983,4006
936369,1671,923,482,1648,10148,2564,-1328,16587,3589
936379,1677,931,478,1820,11200,1676,-1312,17623,2293
936405,1691,926,490,3524,12540,-2528,-1296,14946,-1898
936415,1679,927,492,4652,12532,-2528,-1280,10075,-2878
936425,1684,924,489,5340,13356,-1580,-1312,4430,-2856
936435,1683,923,494,6224,13604,444,-1296,667,-1557
936445,1681,927,504,6352,12296,592,-1312,-1610,345
936455,1683,925,507,6632,10556,644,-1312,-2963,1690
936465,1683,906,508,6656,8652,984,-1328,-5696,1718
936475,1683,924,495,7232,7920,2796,-1280,-6967,362
936485,1683,923,487,8380,7756,3264,-1280,-5402,-1542
936495,1684,923,488,9220,7000,1768,-1344,-3461,-4926
936505,1684,922,487,10540,5580,1628,-1312,-2317,-7439
936515,1687,923,482,12144,5104,2816,-1328,-1561,-8295
936525,1687,922,493,13816,4596,3452,-1312,-169,-8225
936535,1688,951,488,15144,4256,3240,-1312,2701,-8601
936545,1688,926,490,16432,3824,2308,-1280,6737,-9523
936555,1689,925,493,17892,3240,1056,-1344,11253,-10513
936565,1687,925,491,19264,2944,-304,-1296,14931,-10929
936575,1685,925,491,20236,3496,-1788,-1328,17826,-10474
936585,1684,925,486,20600,4032,-3140,-1328,20073,-9033
936595,1682,927,487,20788,5040,-5148,-1328,21346,-6458
936605,1679,927,483,21224,5976,-6256,-1312,20921,-3151
936615,1679,927,485,21552,7108,-6280,-1296,18770,688
936625,1683,926,489,21108,7584,-6256,-1296,15331,4410
936635,1677,928,491,19780,7120,-6040,-1312,10509,6806
936645,1683,927,493,18004,6436,-5496,-1328,5944,7386
936655,1685,925,492,16924,4808,-4320,-1312,2789,6331
936665,1686,933,485,16340,3284,-2652,-1328,1293,4124
936675,1673,921,479,15688,2016,-2196,-1328,1363,1638
936685,1675,921,487,17964,1284,-4040,-1344,2466,-2344
936695,1685,923,477,18004,1628,-1816,-1344,3257,-3798
936705,1684,925,504,18460,2172,-1540,-1312,3995,-1543
936715,1677,927,503,17524,2364,-4092,-1312,4606,601
936725,1677,927,483,17080,3948,-4712,-1328,5801,918
936735,1685,927,487,16672,4552,-4824,-1312,5728,1132
936745,1659,927,501,16076,3232,-4776,-1312,3081,1628
936755,1674,926,507,15668,988,-4464,-1312,-1235,2284
936765,1683,927,492,15776,-1712,-2264,-1312,-5726,2525
936775,1685,920,477,17356,-2544,196,-1328,-6314,1018
936785,1685,927,481,19216,-4568,-824,-1344,-4537,-2784
936795,1678,924,489,20652,-6096,-2260,-1312,-2545,-6286
936805,1683,937,495,21376,-4696,-1244,-1312,493,-6216
936815,1687,916,495,20416,-3020,128,-1312,4518,-2060
936825,1683,923,495,19892,-1568,-492,-1328,7196,3403
936835,1685,925,491,18152,-308,-1348,-1296,7203,7231
936845,1683,931,499,15740,224,-3028,-1328,5768,7762
936855,1685,931,493,14204,648,-4136,-1328,3878,5428
936865,1683,928,491,14568,688,-4328,-1344,1476,947
936875,1683,926,482,15428,272,-3456,-1296,-937,-3376
936885,1683,925,486,16496,-720,-3176,-1296,-3562,-5158
936895,1684,928,493,17308,-1388,-2736,-1360,-5551,-3347
936905,1684,925,491,18052,-1980,-2644,-1296,-5483,-295
936915,1679,917,499,18168,-2744,-2832,-1312,-3913,1783
936925,1682,925,493,17464,-3240,-2736,-1296,-1550,2720
936935,1683,939,488,16768,-3452,-2812,-1328,930,2689
936945,1681,933,487,16228,-3604,-2944,-1312,2337,2001
936955,1681,923,487,16364,-3056,-2436,-1296,2849,1207
936965,1686,926,485,16364,-2228,-1756,-1280,3320,962
936975,1683,931,486,16856,-1292,-1764,-1328,3839,1063
936985,1684,926,493,17368,-748,-2148,-1296,3686,1102
936995,1683,956,495,17300,-972,-2416,-1312,2740,1163
937005,1682,927,495,16964,-1908,-2188,-1280,690,1509
937015,1685,925,489,16792,-2180,-1224,-1312,-472,1507
937025,1683,927,487,16480,-2220,-1204,-1328,289,1005
937035,1683,931,487,16196,-1976,-2080,-1296,2138,514
937045,1683,931,486,16552,-1288,-2732,-1312,3472,251
937055,1683,931,483,16640,-668,-2400,-1312,3706,694
937065,1681,931,486,16972,-300,-2248,-1280,3141,1408
937075,1683,933,487,17200,-80,-1640,-1312,1958,1853
937085,1679,935,494,17200,308,-896,-1328,1070,1853
937095,1684,934,492,16972,-8,-772,-1312,597,1484
937105,1708,933,491,16700,-488,-1036,-1344,-38,953
937115,1678,936,483,16608,-1068,-1096,-1312,-574,429
937125,1687,940,492,16520,-1056,-644,-1344,-223,154
937135,1683,939,490,16520,-1660,-1184,-1296,771,-1
937145,1683,931,490,16500,-1860,-2164,-1312,1485,-95
937155,1686,933,489,16608,-1864,-1944,-1344,1938,1
937165,1683,935,487,16852,-1236,-1696,-1296,2628,261
937175,1683,941,486,16864,-660,-2004,-1296,2884,556
937185,1679,954,487,16880,-248,-2292,-1328,2245,874
937195,1682,979,491,16924,-144,-1952,-1280,888,1183
937205,1643,1006,494,16752,-744,-1716,-1312,-834,1334
937215,1679,991,489,16616,-1432,-1256,-1328,-2001,1029
937225,1683,952,488,16580,-1940,-1108,-1328,-2133,458
937235,1683,935,467,16640,-2264,-1104,-1296,-1489,26
937245,1683,907,489,16836,-2664,-1236,-1328,111,-140
937255,1683,935,488,16512,-2264,-2220,-1312,1198,-757
937265,1683,965,489,16192,-3144,-1220,-1328,342,-607
937275,1685,873,491,16980,-2712,-1280,-1328,-809,311
937285,1681,879,489,15884,-1760,-4412,-1312,-1798,-686
937295,1682,933,491,15496,-1224,-2468,-1296,-2416,-3008
937305,1683,883,491,16500,-2272,200,-1312,-2233,-3943
937315,1683,821,487,17228,-3184,-1940,-1296,-3019,-1931
937325,1683,851,488,17164,-1024,-4272,-1296,-6060,-862
937335,1681,938,488,16432,-1804,-1936,-1312,-6105,-658
937345,1683,973,489,16824,-1912,-1220,-1280,-4177,-578
937355,1682,978,489,16652,-1796,-1096,-1312,-1793,364
937365,1683,949,487,16632,-1844,-1948,-1344,-227,342
937375,1691,977,488,16588,-1504,-2256,-1328,299,25
937385,1683,984,495,16908,-1772,-2308,-1312,297,-429
937395,1683,939,492,17280,-2152,-1800,-1312,348,-492
937405,1643,938,489,17352,-2412,-1200,-1312,461,-269
937415,1682,887,491,17392,-2376,-1176,-1312,1307,431
937425,1683,876,490,16828,-2048,-1276,-1328,2335,1042
937435,1683,904,488,16820,-1328,-1228,-1312,3388,1237
937445,1673,920,486,17012,-832,-1928,-1344,3620,1184
937455,1683,917,493,17160,-840,-1960,-1280,3246,1317
937465,1679,922,489,17124,-772,-1940,-1312,2777,1978
937475,1683,928,488,16892,-980,-2052,-1296,2059,2573
937485,1682,923,487,16720,-1228,-2076,-1328,1367,2804
937495,1682,937,490,16648,-1368,-1960,-1296,858,2673
937505,1671,937,490,16544,-1648,-2008,-1328,560,2431
937515,1684,935,488,16520,-1736,-1824,-1312,428,2177
937525,1683,927,488,16500,-1680,-1536,-1296,425,1997
937535,1683,935,489,16284,-1652,-1416,-1264,434,1921
937545,1685,919,491,16264,-1860,-1308,-1344,415,1811
937555,1682,915,487,16200,-1700,-1076,-1296,497,1425
937565,1683,893,487,16368,-1388,-1368,-1328,707,969
937575,1683,936,489,16636,-748,-1436,-1296,1980,1490
937585,1679,943,492,16684,-1304,-1564,-1296,1112,920
937595,1683,928,488,16632,-1296,-1744,-1280,-561,978
937605,1683,933,491,16544,-1148,-1032,-1280,-1323,1229
937615,1683,985,489,16676,-1324,-1008,-1280,-764,1330
937625,1683,927,489,16816,-1576,-1220,-1296,128,1292
937635,1682,926,487,16856,-1880,-1396,-1328,328,1158
937645,1683,925,489,16556,-1748,-1688,-1312,110,923
937655,1683,978,489,16304,-1440,-972,-1312,-11,736
937665,1683,935,489,16444,-1268,-1080,-1312,132,402
937675,1683,888,491,16420,-1264,-952,-1312,337,80
937685,1683,908,489,16716,-1724,-956,-1296,641,272
937695,1683,1074,487,17048,-1616,-592,-1312,886,874
937705,1683,957,487,16960,-1504,-336,-1280,1141,1280
937715,1682,935,488,16624,-980,-680,-1312,1758,1384
937725,1681,939,490,16640,-1012,-1304,-1280,2103,981
937735,1683,935,488,15896,-1004,-1956,-1312,517,-679
937745,1685,922,491,16556,-1620,-508,-1280,-1273,-1269
937755,1683,940,489,17356,-1376,-1480,-1312,-3986,-994
937765,1683,889,489,17108,-2268,-684,-1296,-4698,-612
937775,1683,844,493,17136,-2552,-616,-1312,-3448,-322
937785,1681,875,489,17232,-2920,-480,-1328,-1377,-124
937795,1679,941,487,17356,-3248,-664,-1328,132,183
937805,1678,941,488,17064,-2640,-1244,-1312,652,505
937815,1679,943,489,16500,-1960,-1616,-1296,991,645
937825,1682,965,488,16364,-1448,-1560,-1296,1272,295
937835,1683,965,489,16496,-1012,-1572,-1280,943,-257
937845,1681,933,488,16692,-816,-1788,-1312,-80,-576
937855,1683,893,489,16804,-860,-1980,-1296,-1422,-382
937865,1681,886,489,16788,-1220,-2080,-1296,-2405,20
937875,1679,919,488,16752,-1260,-1260,-1296,-2571,346
937885,1682,933,487,16952,-1224,-592,-1312,-1774,551
937895,1679,921,485,16868,-1272,-720,-1296,-877,466
937905,1682,934,489,16756,-1144,-972,-1312,-589,265
937915,1683,935,488,16788,-1048,-596,-1312,-721,172
937925,1684,917,488,16756,-1136,-452,-1328,-997,119
937935,1683,893,487,16868,-1436,-792,-1312,-1425,-108
937945,1679,884,487,16720,-1784,-876,-1312,-1851,-467
937955,1683,874,487,16748,-1892,-756,-1312,-1995,-725
937965,1683,919,487,17156,-2112,-1164,-1280,-1896,-962
937975,1683,939,487,17468,-2068,-1084,-1296,-1880,-1085
937985,1683,927,488,17396,-1892,-1196,-1280,-1876,-826
937995,1683,905,489,17540,-1960,-1484,-1312,-2122,-381
938005,1679,895,489,17556,-2308,-1864,-1296,-2878,-421
938015,1661,932,491,17688,-2824,-1916,-1312,-4073,-799
938025,1682,872,489,17616,-3212,-1296,-1328,-4968,-855
938035,1683,879,489,17324,-3572,-852,-1312,-4938,-775
938045,1683,937,489,17356,-3680,-904,-1312,-4530,-610
938055,1685,957,490,17468,-3776,-1004,-1296,-4606,-667
938065,1683,955,489,17364,-3640,-1284,-1328,-4760,-1075
938075,1683,1056,485,17436,-3044,-840,-1328,-4801,-1303
938085,1684,1093,490,17520,-2960,-1364,-1264,-4939,-1953
938095,1683,997,487,17580,-2456,-2596,-1312,-5283,-3657
938105,1681,965,483,17708,-1712,-2580,-1264,-6205,-4793
938115,1711,936,482,17688,-960,-2700,-1296,-8222,-4285
938125,1678,937,489,17680,-700,-3292,-1312,-10106,-3603
938135,1679,937,487,17868,-552,-3512,-1296,-12050,-3024
938145,1691,949,487,18096,-264,-2880,-1312,-13949,-2447
938155,1679,932,489,17728,-264,-2460,-1280,-15583,-2007
938165,1681,951,489,17652,-548,-1648,-1280,-16797,-1678
938175,1677,931,491,17156,-1096,-1224,-1280,-17530,-1383
938185,1677,933,496,16196,-2184,-1024,-1296,-17320,-1382
938195,1679,931,490,15636,-3200,-568,-1280,-15902,-1893
938205,1683,931,478,15432,-3496,-84,-1312,-13925,-2495
938215,1683,931,477,15704,-2936,1084,-1296,-11606,-2429
938225,1683,933,486,15740,-1732,1636,-1312,-9247,-1623
938235,1679,933,489,15320,-440,1724,-1296,-7221,-840
938245,1681,932,492,14716,312,1028,-1296,-6183,-591
938255,1684,932,493,14164,580,396,-1280,-6142,-876
938265,1683,931,489,14016,188,-232,-1296,-6967,-1673
938275,1683,948,491,14176,-424,-616,-1328,-8219,-2815
938285,1683,931,489,14468,-988,-476,-1328,-8776,-3644
938295,1683,932,485,15108,-1544,-556,-1296,-8238,-3770
938305,1683,933,491,15440,-2084,-920,-1312,-6936,-3337
938315,1681,933,489,15812,-2208,-1360,-1328,-5664,-2510
938325,1679,935,486,15848,-2608,-2092,-1296,-4952,-1541
938335,1683,933,490,15568,-2692,-2196,-1280,-4675,-750
938345,1683,932,485,15344,-2252,-1412,-1280,-4229,-365
938355,1681,932,483,15336,-1600,-1056,-1280,-3510,-427
938365,1683,933,471,15208,-1196,-1516,-1312,-3113,-889
938375,1681,931,491,15216,-536,-1920,-1328,-3584,-1171
938385,1679,933,489,15200,36,-2392,-1312,-5020,-1323
938395,1678,932,489,15424,456,-2896,-1280,-6969,-1671
938405,1677,932,486,15624,136,-3428,-1296,-9115,-2107
938415,1678,927,487,15588,-216,-3936,-1312,-11263,-2434
938425,1685,932,483,16060,-772,-4672,-1296,-12763,-2767
938435,1680,933,483,16060,-1528,-5544,-1328,-13954,-2948
938445,1679,933,485,16460,-1876,-4724,-1296,-15015,-2330
938455,1682,934,479,16556,-2136,-3832,-1296,-15290,-1107
938465,1683,933,483,16136,-2024,-3720,-1328,-15100,56
938475,1679,934,486,15264,-2004,-3904,-1328,-14887,855
938485,1683,933,482,14876,-2056,-3932,-1296,-15175,796
938495,1684,932,475,14712,-2360,-3956,-1344,-15889,4
938505,1683,933,486,14560,-2696,-3788,-1312,-16380,-1242
938515,1683,932,487,15036,-2996,-3560,-1280,-16507,-1943
938525,1685,931,483,15984,-3256,-2824,-1280,-16113,-2043
938535,1683,933,483,16436,-3360,-3104,-1296,-15317,-1795
938545,1679,928,495,16576,-3668,-3972,-1312,-14517,-1004
938555,1681,931,487,16520,-4416,-4248,-1312,-14142,-90
938565,1681,933,493,16588,-5480,-3600,-1296,-13763,905
938575,1683,933,487,16676,-5900,-3260,-1280,-12668,1634
938585,1683,933,478,16896,-5620,-3120,-1328,-10455,1653
938595,1682,935,487,16556,-5076,-2988,-1296,-7217,1772
938605,1685,925,483,16504,-4596,-1796,-1312,-4356,2513
938615,1673,939,499,16632,-5260,-3788,-1312,-3552,1942
938625,1679,915,460,16096,-3076,-4400,-1296,-4050,1226
938635,1683,937,478,15188,220,-10732,-1296,-2973,-756
938645,1681,943,465,14904,44,-11124,-1296,-1697,-4741
938655,1669,938,475,19660,-5508,-8872,-1312,-9658,-3396
938665,1676,947,520,24072,-8460,4628,-1280,-21506,196
938675,1685,893,529,21744,-11088,2512,-1312,-23224,5453
938685,1683,883,537,18300,-14704,36,-1312,-18326,7824
938695,1687,892,521,15676,-15612,-5076,-1296,-12451,5018
938705,1683,907,474,16964,-14228,-1108,-1280,-2178,1772
938715,1688,988,469,16460,-10848,4592,-1312,9800,-715
938725,1689,914,457,15608,-6912,-3280,-1296,16754,-1118
938735,1674,939,489,16744,248,-8864,-1312,19558,-2427
938745,1675,943,502,14832,1956,-10504,-1328,15799,-2408
938755,1677,943,502,17084,3420,-7536,-1280,7676,527
938765,1681,935,483,15468,2648,-9932,-1280,-3720,3344
938775,1679,939,478,13888,1512,-9316,-1296,-10678,3111
938785,1679,943,488,14444,1144,-5752,-1296,-10920,695
938795,1679,925,472,14748,-524,-2132,-1328,-7870,-2040
938805,1683,933,477,17120,724,-2476,-1328,-1821,-3451
938815,1687,933,485,17116,928,-3616,-1312,482,-2132
938825,1682,977,484,18184,1068,-4376,-1296,-1344,354
938835,1683,933,487,16984,2204,-2620,-1296,-2765,1571
938845,1679,919,493,15664,2540,-3904,-1296,-1823,829
938855,1679,935,492,14528,2148,-7012,-1296,-1522,-1224
938865,1683,931,473,14568,1532,-7844,-1312,-2653,-3067
938875,1683,933,476,15448,1912,-7800,-1312,-3651,-3345
938885,1677,935,483,16468,2160,-7248,-1312,-3789,-2228
938895,1677,935,491,16776,1376,-5928,-1312,-3891,-313
938905,1670,935,489,16352,-156,-4688,-1296,-4656,1473
938915,1681,935,488,15776,-1196,-3664,-1312,-4940,1493
938925,1685,935,431,15428,-1080,-4180,-1312,-3706,-197
938935,1677,933,483,15000,-640,-4508,-1280,-1608,-2219
938945,1678,932,488,15616,-696,-4872,-1312,-351,-3260
938955,1683,933,486,16184,-348,-6100,-1328,-978,-2879
938965,1681,933,487,16020,788,-7368,-1312,-1693,-1685
938975,1679,934,485,16092,1596,-8060,-1312,-1945,-977
938985,1681,934,501,16152,896,-7428,-1264,-3151,-671
938995,1679,1020,503,16144,96,-5952,-1312,-5079,-306
939005,1679,935,493,15800,-572,-5568,-1328,-5704,-620
939015,1681,862,489,15764,-748,-4928,-1328,-4540,-1139
939025,1685,933,489,15920,-728,-5732,-1280,-3332,-1482
939035,1683,933,485,15852,-136,-5952,-1296,-2260,-1353
939045,1683,934,485,16128,172,-6212,-1296,-1828,-1111
939055,1677,932,487,16112,464,-7076,-1280,-2928,-647
939065,1675,933,487,15896,552,-6852,-1296,-4080,-240
939075,1677,936,486,15844,696,-6200,-1312,-3707,-349
939085,1677,934,475,15668,960,-6568,-1296,-2808,-550
939095,1682,933,479,16080,1000,-6692,-1296,-2747,-741
939105,1673,933,483,16140,1160,-6048,-1312,-3081,-540
939115,1676,933,484,16372,1304,-5908,-1312,-3419,-149
939125,1679,932,477,16092,1168,-6200,-1344,-3700,-45
939135,1679,933,483,16072,1164,-6048,-1312,-4098,-46
939145,1681,933,484,15896,1028,-5976,-1296,-4474,-245
939155,1681,933,487,16052,916,-5728,-1312,-4641,-284
939165,1684,932,488,16140,560,-6272,-1280,-5323,-214
939175,1681,938,496,16084,-144,-6112,-1312,-6454,-82
939185,1684,934,485,15944,-916,-5340,-1312,-6859,147
939195,1685,925,483,15808,-1620,-5576,-1328,-6377,82
939205,1685,933,479,15836,-1184,-5508,-1280,-5227,-135
939215,1676,932,475,15904,-332,-5264,-1280,-3587,-75
939225,1685,933,476,16204,796,-6276,-1296,-2904,-71
939235,1683,936,484,16080,1252,-6840,-1296,-3826,-47
939245,1683,935,483,15976,1324,-6212,-1328,-5320,403
939255,1683,935,496,15432,640,-6180,-1312,-6853,809
939265,1688,924,491,15212,-84,-5924,-1312,-7359,506
939275,1683,923,495,15300,-788,-4964,-1296,-6415,-26
939285,1679,933,488,15656,-768,-5436,-1264,-5216,-242
939295,1679,932,475,16004,-436,-5604,-1312,-4175,-217
939305,1685,933,470,16680,372,-5568,-1296,-3000,22
939315,1679,938,466,16588,1480,-6296,-1280,-2403,58
939325,1681,935,479,16504,2188,-6900,-1296,-2981,214
939335,1683,933,499,16756,1752,-6960,-1296,-4807,450
939345,1684,935,493,16292,960,-6404,-1280,-7166,851
939355,1650,933,488,16136,580,-6524,-1312,-8257,644
939365,1679,947,484,16448,208,-7568,-1312,-7949,-155
939375,1685,934,487,17008,88,-6436,-1296,-6869,-367
939385,1679,904,479,17348,716,-6196,-1296,-5245,444
939395,1683,931,486,17164,1504,-6896,-1312,-4081,1017
939405,1679,932,488,17000,1980,-6204,-1312,-4093,1398
939415,1682,933,495,16700,2172,-5804,-1280,-5049,1591
939425,1677,933,495,16320,1640,-6684,-1280,-6569,1096
939435,1683,933,492,16584,812,-6652,-1296,-8091,501
939445,1681,933,490,16780,-28,-6300,-1312,-7934,98
939455,1683,928,483,17248,400,-6356,-1280,-6216,48
939465,1689,933,491,17580,656,-7036,-1296,-5407,577
939475,1677,933,491,17836,792,-6516,-1312,-5933,1354
939485,1677,933,492,17804,1392,-5648,-1296,-6688,1825
939495,1682,927,492,17784,2032,-5648,-1312,-7207,1570
939505,1682,934,491,18348,2308,-5284,-1280,-7963,824
939515,1684,928,487,18928,2236,-4704,-1312,-9210,314
939525,1679,943,486,19616,1856,-4308,-1328,-11207,434
939535,1679,927,491,20164,548,-4804,-1296,-14042,849
939545,1673,935,486,20296,-600,-4000,-1312,-16630,1317
939555,1677,933,479,20380,-924,-2656,-1312,-16691,2008
939565,1682,933,485,20388,-460,-2356,-1296,-15408,2485
939575,1679,934,461,20192,-696,-5044,-1312,-16015,2354
939585,1673,933,439,19396,-5216,-11452,-1296,-21803,1547
939595,1683,931,495,19660,-9524,-8276,-1296,-30245,3074
939605,1691,927,503,20448,-9356,4256,-1312,-32047,8007
939615,1683,928,474,20996,-7220,4116,-1296,-22835,11947
939625,1683,935,446,20156,-4972,876,-1296,-10214,11177
939635,1683,902,439,20668,2084,1176,-1280,3359,6161
939645,1678,933,473,20356,5556,2212,-1328,11579,1874
939655,1674,935,499,20320,9240,-2348,-1280,11451,756
939665,1671,935,503,19556,13052,-5388,-1312,3508,3644
939675,1673,934,491,18228,14420,-6108,-1312,-7589,7124
939685,1673,936,496,15168,14816,-4876,-1312,-15169,8308
939695,1673,937,489,12668,13772,-4356,-1328,-17423,7200
939705,1652,936,485,11432,13772,-2128,-1312,-15864,5397
939715,1675,937,479,10880,12884,-1012,-1312,-11993,2984
939725,1675,937,488,10152,12840,-720,-1296,-8810,1844
939735,1565,939,479,9304,15192,-780,-1328,-6534,2424
939745,1736,937,469,8936,17308,-1080,-1328,-5668,3583
939755,1708,937,491,9132,17984,-3044,-1344,-6399,3204
939765,1751,935,505,9680,18944,-10712,-1312,-11934,-14
939775,1688,933,489,9556,14668,-4192,-1312,-19855,-1598
939785,1677,935,506,6284,10520,548,-1296,-26446,-553
939795,1677,941,506,3764,8796,4632,-1296,-26218,2342
939805,1676,937,486,1972,5696,7124,-1296,-22866,3213
939815,1683,937,475,2480,3860,9396,-1312,-16709,1852
939825,1683,925,471,3920,4296,9164,-1296,-9927,-2347
939835,1683,928,473,5488,5888,7264,-1312,-4942,-8001
939845,1693,932,487,6956,7080,5564,-1328,-1276,-13004
939855,1679,931,500,8560,6968,3364,-1328,222,-15171
939865,1679,931,503,9728,6736,3188,-1376,-210,-14220
939875,1671,927,496,10028,6328,4192,-1360,-1001,-10912
939885,1643,933,489,10064,5972,5700,-1296,284,-7513
939895,1677,932,475,9692,5944,5652,-1312,3943,-6009
939905,1673,933,476,9144,6368,4156,-1296,7642,-6297
939915,1676,935,472,9452,7104,3256,-1344,10540,-7949
939925,1683,933,468,10200,8404,1920,-1312,10636,-9520
939935,1677,934,485,10732,8936,316,-1328,8993,-10578
939945,1681,932,485,12164,8988,-1004,-1312,5246,-10942
939955,1679,935,485,13552,8808,-1888,-1344,499,-10807
939965,1683,931,487,14512,7692,-1728,-1312,-3373,-10089
939975,1681,921,487,15380,5948,-596,-1344,-5579,-9026
939985,1683,933,476,15748,4856,472,-1328,-5923,-8066
939995,1686,932,485,15988,3536,640,-1344,-4523,-7618
940005,1686,935,476,16412,2328,12,-1280,-1861,-7787
940015,1687,937,483,16584,840,-1168,-1344,248,-8349
940025,1685,934,480,16964,-372,-1952,-1344,1813,-8811
940035,1685,959,478,17936,-1348,-2360,-1360,2592,-8821
940045,1683,937,473,18884,-1920,-1900,-1328,3504,-8338
940055,1681,934,471,20408,-1668,-1912,-1296,4684,-7955
940065,1681,935,474,20852,-1044,-2580,-1328,6755,-7114
940075,1685,935,478,20768,-1044,-3168,-1344,8034,-5327
940085,1683,937,476,20236,-1512,-2848,-1328,7417,-2361
940095,1684,936,483,19296,-2852,-2616,-1344,5028,297
940105,1678,937,483,18168,-4348,-2268,-1344,2099,1062
940115,1675,1021,479,17528,-4416,-1044,-1328,573,81
940125,1699,927,471,16728,-4696,-924,-1312,1516,-2299
940135,1679,937,477,15892,-4436,-4268,-1328,3035,-4889
940145,1673,935,475,15956,-4144,-5072,-1328,3743,-6394
940155,1677,934,499,16960,-4284,-4312,-1312,3686,-5768
940165,1683,937,502,17224,-6592,-4388,-1328,2259,-3006
940175,1679,935,501,16764,-7076,-3820,-1312,355,504
940185,1681,939,519,15500,-5620,-3228,-1328,996,3223
940195,1720,1007,523,14188,-4740,-3316,-1328,3037,3666
940205,1683,935,508,13232,-4252,-3292,-1344,5123,2337
940215,1693,932,502,13208,-2848,-2620,-1344,6276,615
940225,1677,941,495,13208,-1560,-4084,-1344,6920,-2108
940235,1690,933,431,13756,512,-2972,-1312,7368,-3012
940245,1693,938,463,14360,-1012,-2688,-1328,7454,-4083
940255,1658,937,441,18372,-5104,-252,-1312,4182,-6553
940265,1659,937,488,20780,-6088,936,-1312,-598,-6009
940275,1693,937,477,20532,-7748,-4328,-1312,-5104,-3391
940285,1692,937,489,21732,-8280,-2676,-1344,-9153,-877
940295,1675,1075,540,21056,-10388,3324,-1296,-6815,256
940305,1677,932,478,21504,-14844,5184,-1360,-2934,-1416
940315,1688,927,445,21768,-14740,3716,-1328,1165,-3884
940325,1686,943,485,21704,-9288,-2688,-1328,7139,-4975
940335,1669,909,525,21192,-6744,-5556,-1312,9511,-5115
940345,1674,932,523,20664,-4300,-4444,-1328,8642,-3867
940355,1675,933,486,19124,-4392,-7868,-1312,3761,-1953
940365,1681,934,473,15652,-3328,-12364,-1344,-1302,-1538
940375,1679,934,457,15528,1268,-9664,-1296,654,-1590
940385,1676,939,479,14792,5124,-10856,-1344,4768,-1566
940395,1676,933,491,15472,4100,-9676,-1328,4747,-1222
940405,1677,935,491,17560,3276,-2944,-1296,-1196,-482
940415,1675,934,492,15780,152,-7516,-1312,-11154,1516
940425,1657,937,488,14740,-940,-6904,-1328,-19055,1202
940435,1679,938,508,14332,-2340,-4400,-1312,-21125,-455
940445,1685,935,479,15136,-3576,-3660,-1312,-17975,-2500
940455,1683,933,473,15860,-4196,-1812,-1328,-11020,-3488
940465,1684,935,495,17108,-3816,-3260,-1344,-4217,-3488
940475,1683,931,472,17564,-3052,-4684,-1312,-1956,-1748
940485,1677,934,481,16788,-1168,-4048,-1344,-2116,596
940495,1679,940,478,15792,-252,-5956,-1312,-3634,1854
940505,1681,933,488,14776,-976,-6472,-1328,-6400,1489
940515,1663,935,483,14288,-2268,-6552,-1328,-9113,-388
940525,1681,936,484,14584,-2576,-5816,-1328,-9764,-2176
940535,1683,935,485,15480,-3152,-5744,-1312,-8630,-2806
940545,1683,934,489,16276,-3660,-6260,-1344,-7031,-2267
940555,1683,933,483,16028,-3556,-5796,-1296,-5278,-419
940565,1676,933,489,15548,-3672,-5544,-1328,-3668,1367
940575,1676,935,489,15320,-4368,-5596,-1296,-3126,1319
940585,1679,937,485,15304,-4524,-5884,-1328,-3398,51
940595,1679,935,486,15472,-3932,-6420,-1312,-3013,-796
940605,1679,935,487,16140,-3776,-5840,-1296,-2402,-812
940615,1679,935,490,16364,-4084,-5044,-1328,-2805,199
940625,1682,933,491,16188,-4520,-5476,-1312,-4181,1222
940635,1681,935,492,15540,-4220,-5960,-1328,-4754,1126
940645,1683,935,484,15272,-4104,-5548,-1344,-3718,655
940655,1675,927,477,15480,-3892,-5296,-1312,-2275,446
940665,1677,935,484,15664,-3336,-5032,-1328,-983,507
940675,1679,937,489,15864,-3036,-4920,-1312,-455,778
940685,1679,803,482,15972,-2716,-4848,-1312,-593,1146
940695,1682,934,485,15628,-2240,-4704,-1280,-551,1132
940705,1683,933,485,15492,-1912,-5212,-1280,-111,669
940715,1677,933,483,15808,-1564,-5312,-1264,217,313
940725,1677,937,486,15932,-1092,-5004,-1328,642,375
940735,1683,941,484,16044,-1440,-4908,-1296,628,451
940745,1677,936,483,16200,-1384,-4780,-1312,-28,752
940755,1678,935,483,15840,-1404,-5000,-1312,-158,609
940765,1679,936,485,15824,-2144,-4596,-1360,-246,74
940775,1677,936,479,15800,-2804,-4388,-1328,-597,140
940785,1679,935,454,15460,-2864,-4792,-1280,-18,219
940795,1681,933,479,15432,-3576,-4964,-1296,1095,-74
940805,1685,934,484,16052,-3912,-5148,-1312,2007,-587
940815,1683,935,483,16224,-2772,-5108,-1328,3305,-661
940825,1679,935,474,16664,-1356,-5400,-1296,4560,-319
940835,1683,934,485,16688,-296,-5356,-1312,4375,466
940845,1688,937,485,16424,176,-6336,-1328,3011,1042
940855,1679,935,476,16156,40,-6696,-1296,491,1251
940865,1677,935,481,15996,-240,-6132,-1312,-1450,886
940875,1679,935,483,15724,-1176,-5920,-1328,-2066,524
940885,1677,923,479,15672,-2112,-5636,-1344,-1514,212
940895,1682,937,475,16096,-2580,-4984,-1344,-178,447
940905,1677,936,485,16112,-2796,-4944,-1296,1258,1041
940915,1683,935,485,15904,-2964,-4928,-1312,2157,1609
940925,1705,935,490,15716,-2492,-4736,-1328,2393,1689
940935,1657,935,487,15752,-2024,-5420,-1312,2445,956
940945,1679,935,484,16036,-1020,-4820,-1344,2585,624
940955,1679,935,482,16628,-72,-4876,-1328,2499,476
940965,1677,934,485,16744,-32,-4944,-1312,1191,728
940975,1679,951,473,16720,-800,-5296,-1312,-1016,1369
940985,1677,935,477,16372,-1564,-4596,-1312,-2467,1596
940995,1682,933,486,15716,-2944,-4932,-1312,-1814,1316
941005,1676,933,482,15656,-3124,-4764,-1296,171,1370
941015,1679,966,485,15804,-3224,-4788,-1328,2888,729
941025,1684,935,485,16304,-3152,-5152,-1296,5003,613
941035,1679,933,485,16332,-2784,-5180,-1296,6135,1058
941045,1685,933,486,16432,-1716,-4928,-1312,7065,1529
941055,1677,934,487,15920,836,-5240,-1328,8251,1939
941065,1677,935,487,16096,2856,-6676,-1328,8479,1762
941075,1681,937,488,16536,3208,-7024,-1312,6375,1583
941085,1684,934,486,16832,2648,-6308,-1296,1959,1760
941095,1675,935,481,16648,1856,-5132,-1296,-1980,1995
941105,1683,936,483,16500,1580,-3736,-1296,-2318,1972
941115,1676,935,479,16600,852,-2564,-1328,-427,1853
941125,1683,935,479,16500,412,-2520,-1312,986,2198
941135,1683,935,481,16064,300,-2468,-1280,1433,2460
941145,1683,935,483,15520,572,-2528,-1312,1528,2349
941155,1681,936,485,15256,668,-2480,-1296,1750,1987
941165,1682,935,482,15156,804,-2876,-1328,2175,1355
941175,1683,933,483,15252,868,-3080,-1312,2281,780
941185,1677,933,486,15420,1224,-3512,-1312,2349,516
941195,1644,933,485,15784,1812,-4088,-1312,2622,417
941205,1678,935,473,16348,2036,-4320,-1312,2431,317
941215,1679,937,471,16660,2160,-3932,-1328,1916,564
941225,1678,934,476,16848,2252,-4348,-1280,1770,691
941235,1677,934,477,16876,2112,-4160,-1312,2038,701
941245,1681,935,477,16816,2228,-4064,-1296,2253,912
941255,1683,935,477,16748,2384,-4192,-1280,2083,1107
941265,1711,935,485,16540,1972,-4324,-1280,740,1042
941275,1679,939,485,16432,1372,-4544,-1312,-1114,899
941285,1679,841,484,16236,572,-4292,-1312,-2457,749
941295,1676,934,485,16216,84,-4020,-1296,-2760,636
941305,1675,935,482,16300,140,-3796,-1280,-2074,713
941315,1677,928,484,16580,-108,-3816,-1280,-1602,640
941325,1675,934,537,16780,-640,-3560,-1312,-2004,594
941335,1679,935,475,16436,-772,-3292,-1312,-2224,889
941345,1677,933,483,16168,-384,-3528,-1328,-1042,983
941355,1679,935,483,16244,128,-3600,-1312,190,794
941365,1682,932,483,16124,656,-3732,-1312,670,864
941375,1679,933,487,16064,1336,-4104,-1296,268,1076
941385,1679,935,494,16000,1936,-4324,-1312,-429,887
941395,1679,933,483,16064,1388,-4272,-1296,-1646,623
941405,1679,953,477,16288,804,-3796,-1328,-2890,513
941415,1679,936,483,16252,508,-3308,-1312,-2450,316
941425,1679,935,479,16564,624,-3000,-1296,-665,142
941435,1682,891,479,17000,1252,-2848,-1296,1079,323
941445,1677,935,478,17032,1856,-3312,-1312,1765,724
941455,1679,935,475,16572,2728,-3784,-1296,1034,1110
941465,1679,935,483,16260,2640,-4316,-1280,-576,1045
941475,1679,935,482,15888,1904,-4184,-1328,-2652,692
941485,1671,935,479,15708,1152,-3524,-1296,-3735,326
941495,1677,935,479,15672,636,-3152,-1344,-3459,116
941505,1677,935,483,16100,540,-3072,-1312,-2659,257
941515,1677,935,487,16488,180,-3360,-1312,-2501,342
941525,1683,934,485,16664,-528,-4232,-1328,-3258,241
941535,1679,935,483,16568,-608,-4348,-1296,-2950,-130
941545,1677,935,477,16484,40,-3872,-1312,-1150,6
941555,1678,936,477,16752,1252,-4132,-1280,978,628
941565,1679,935,488,16692,1776,-5168,-1280,397,1254
941575,1690,935,487,16472,1332,-5396,-1312,-2336,1436
941585,1678,936,483,15980,792,-4732,-1328,-4394,973
941595,1681,935,475,15888,420,-4448,-1280,-4049,274
941605,1679,943,479,16404,-372,-4192,-1312,-3060,-68
941615,1645,935,479,16900,-900,-3764,-1296,-2649,580
941625,1677,936,447,16780,-1064,-3664,-1280,-2242,1312
941635,1682,936,487,16700,-1112,-3692,-1280,-1565,1385
941645,1677,935,479,16360,-1000,-3428,-1312,-833,1213
941655,1676,932,478,16184,-604,-3612,-1312,-164,1100
941665,1677,935,479,16236,-300,-4292,-1328,-126,926
941675,1715,948,483,16300,-276,-3956,-1328,-573,892
941685,1671,936,483,16400,-176,-3984,-1328,-943,1109
941695,1677,933,482,16404,-256,-4208,-1296,-1238,1224
941705,1683,934,525,16380,-384,-4164,-1280,-1653,1388
941715,1677,933,479,16376,-824,-4192,-1296,-2236,1473
941725,1678,935,490,16480,-1300,-4452,-1296,-2574,1562
941735,1679,934,487,16416,-1824,-4684,-1280,-2306,1148
941745,1677,933,482,16768,-1864,-4072,-1264,-1436,958
941755,1683,959,477,17084,-1256,-3316,-1280,366,1046
941765,1677,955,487,17024,-1048,-3692,-1296,2079,1306
941775,1683,935,477,17016,-332,-3260,-1296,2738,2045
941785,1681,935,477,16808,660,-3264,-1280,3110,2538
941795,1679,936,485,16324,872,-4076,-1280,2384,2372
941805,1678,937,483,16164,428,-4252,-1280,693,1896
941815,1679,937,479,15916,-288,-3820,-1296,-766,1483
941825,1673,923,482,16060,-728,-3644,-1296,-996,1387
941835,1677,931,478,16296,-1108,-3620,-1312,-453,1394
941845,1677,935,483,16616,-1864,-3656,-1280,102,1426
941855,1678,935,478,16768,-2672,-3356,-1280,515,1694
941865,1681,852,477,16672,-3064,-3212,-1280,1055,2055
941875,1671,937,483,16444,-3092,-3504,-1296,1847,2212
941885,1683,935,484,16328,-2580,-3084,-1312,2910,2114
941895,1682,937,473,16604,-1896,-2664,-1280,4084,1893
941905,1676,934,471,16840,-1188,-2960,-1312,4477,1771
941915,1683,935,523,16992,36,-3016,-1312,4853,1389
941925,1683,935,477,17380,680,-2832,-1296,4913,1006
941935,1679,935,483,18092,1676,-2820,-1312,4516,886
941945,1678,935,483,18324,2504,-3404,-1312,3767,795
941955,1677,939,470,19048,2620,-3964,-1328,2328,162
941965,1679,935,485,20100,1820,-5108,-1280,-268,-734
941975,1679,933,485,20992,616,-4600,-1296,-3518,-1268
941985,1683,933,484,21864,-924,-4516,-1280,-5936,-279
941995,1679,935,477,22452,-2296,-5216,-1344,-7394,1328
942005,1681,931,470,21724,-2744,-4944,-1296,-6791,3058
942015,1679,935,475,21952,-3300,-5016,-1296,-5577,4993
942025,1683,936,473,21352,-3216,-5064,-1328,-5046,6298
942035,1682,934,475,19628,-1768,-2568,-1296,-3950,7675
942045,1677,934,473,19692,-108,-544,-1280,-2416,8628
942055,1677,933,487,19456,1252,-2848,-1296,-2048,7055
942065,1676,935,489,19536,2088,-5064,-1296,-2459,3186
942075,1677,936,485,20396,2104,-4816,-1280,-3507,79
942085,1683,932,473,21876,1948,-3292,-1296,-4860,-886
942095,1683,933,473,21732,2116,-2696,-1312,-4849,783
942105,1679,933,475,20608,2616,-3112,-1312,-3561,3361
942115,1673,935,463,19792,4532,-2236,-1296,-768,4456
942125,1683,935,455,20880,6924,-1276,-1280,1372,4452
942135,1683,936,466,21312,8376,-3104,-1280,1527,2695
942145,1678,931,484,20040,8452,-5116,-1312,-1388,622
942155,1677,933,499,19112,8008,-4836,-1280,-7170,918
942165,1677,935,484,19684,7532,-2520,-1264,-12691,2163
942175,1677,935,473,19868,7240,60,-1280,-14558,2779
942185,1677,935,476,19612,7048,840,-1280,-11915,2508
942195,1663,937,475,19032,6304,704,-1264,-7972,1722
942205,1679,933,486,17824,5260,116,-1312,-5337,1717
942215,1679,935,477,17824,5344,560,-1296,-4128,2211
942225,1677,921,473,17100,5560,828,-1312,-2769,2262
942235,1677,933,475,16564,6136,1420,-1280,-759,1938
942245,1683,939,470,16380,7284,1632,-1296,2125,1090
942255,1683,936,475,15656,7244,428,-1296,4994,-52
942265,1677,933,483,15276,7220,-628,-1264,5688,-682
942275,1678,935,478,15052,7872,-688,-1296,4661,-616
942285,1676,935,483,14832,8268,-764,-1280,4259,-350
942295,1719,935,481,14492,8536,-1044,-1328,4279,-48
942305,1677,935,483,14688,8692,-1332,-1264,4487,127
942315,1682,933,479,14488,8732,-2184,-1312,4813,-135
942325,1679,934,478,13420,8076,-2868,-1312,4436,353
942335,1718,935,475,13088,7844,-2448,-1312,3452,1233
942345,1677,934,491,12048,7996,-1568,-1296,2870,2419
942355,1646,936,482,10644,7772,-1348,-1296,2494,3913
942365,1676,937,486,9424,7212,-792,-1312,1673,5182
942375,1677,936,483,8584,6684,-176,-1280,556,5701
942385,1676,934,482,8112,6824,832,-1312,95,5101
942395,1679,936,483,7628,6596,1020,-1248,701,3325
942405,1679,935,474,7576,5772,396,-1296,1174,995
942415,1678,935,475,7856,5108,256,-1312,1173,-1575
942425,1677,935,475,8560,4136,596,-1312,1213,-3259
942435,1677,935,479,9076,3512,920,-1296,1703,-3611
942445,1675,934,479,9684,3468,1160,-1312,2808,-3051
942455,1673,933,477,10204,3812,1480,-1280,4508,-2080
942465,1679,934,477,10600,4856,536,-1280,5918,-1455
942475,1679,935,476,11012,5188,-1204,-1312,5935,-1581
942485,1677,935,481,10788,5140,-1608,-1280,3979,-1279
942495,1676,935,476,10672,5364,-1312,-1312,1461,-419
942505,1675,935,466,10380,5140,-776,-1312,-349,421
942515,1679,935,474,10720,4832,-764,-1280,-1280,709
942525,1677,935,475,10996,4656,-616,-1312,-1469,231
942535,1681,935,486,11284,3820,-1108,-1296,-1765,-410
942545,1678,934,479,11872,3156,-720,-1312,-2304,-1631
942555,1679,936,483,12744,2316,-64,-1344,-2610,-1921
942565,1683,934,485,13184,1728,804,-1296,-2085,-1754
942575,1689,935,478,13460,1176,1084,-1280,-671,-1322
942585,1681,923,483,13548,1124,960,-1296,1557,-1363
942595,1683,851,478,13896,1572,1000,-1344,4019,-1757
942605,1683,935,479,14036,2140,-268,-1312,6443,-2623
942615,1681,949,479,14516,2788,-1560,-1312,6925,-3438
942625,1645,935,473,15064,3548,-1948,-1296,6139,-3996
942635,1678,936,483,15664,3564,-2912,-1328,4029,-3692
942645,1678,938,476,16336,3660,-2680,-1328,931,-2713
942655,1683,935,484,16704,3492,-1900,-1312,-1640,-1300
942665,1689,936,481,17120,3260,-1656,-1296,-2947,-551
942675,1683,936,482,16832,2140,-2536,-1312,-3318,-690
942685,1678,838,483,17216,1320,-2776,-1312,-3631,-1331
942695,1678,937,479,17212,524,-2944,-1296,-3871,-1761
942705,1679,935,490,17060,-348,-3072,-1312,-4507,-1515
942715,1681,934,475,16580,-528,-2000,-1312,-4396,-490
942725,1678,937,477,16016,-560,-1580,-1296,-3098,883
942735,1682,937,476,15436,324,-540,-1312,-1190,1927
942745,1679,1017,475,14804,1520,-96,-1280,696,2272
942755,1674,937,472,14148,2024,-1800,-1312,1054,1646
942765,1677,937,485,13352,1284,-3620,-1312,-1028,295
942775,1679,887,484,13072,368,-3380,-1296,-4046,-752
942785,1681,936,487,12420,-812,-1528,-1312,-4742,-825
942795,1679,923,479,11748,-816,-16,-1344,-2389,334
942805,1683,935,475,10188,-112,1280,-1312,2162,2060
942815,1679,936,476,8264,1016,264,-1328,7315,3398
942825,1692,939,499,9776,-848,-2400,-1328,8763,3193
942835,1677,921,663,30328,-5656,-16692,-1312,145,-8529
942845,1706,907,447,32767,-13148,-17952,-1280,-16885,-32768
942855,1679,933,453,32767,-16568,-1564,-1296,-21884,-32768
942865,1672,937,284,32767,-11948,17308,-1280,-3349,-9986
942875,1671,947,281,13916,-928,13220,-1328,32685,24252
942885,1702,957,525,-3152,-960,2416,-1328,32767,32767
942895,1671,937,595,5136,5856,-6204,-1280,32767,32767
942905,1683,947,600,20872,11756,-6552,-1312,25176,32767
942915,1695,939,493,17204,18104,-24580,-1296,-7690,18856
942925,1661,936,455,4328,8776,-6840,-1312,-19146,-8588
942935,1677,932,484,11244,5524,768,-1312,-20723,-25016
942945,1676,927,469,12380,1484,-548,-1312,-12746,-24072
942955,1685,935,533,15316,11476,-24944,-1280,-19552,-30692
942965,1689,927,428,23168,-1144,18684,-1296,-13434,-32580
942975,1685,937,405,24648,2124,8988,-1296,2581,-19615
942985,1671,937,459,22644,3384,-4212,-1360,15606,-6770
942995,1676,923,475,19576,5528,-5340,-1312,18826,2895
943005,1677,932,492,18924,9284,-4356,-1296,13685,10795
943015,1683,939,479,16680,11520,-3816,-1296,6503,13183
943025,1679,927,492,14524,11944,-6572,-1296,895,9201
943035,1677,937,475,12396,9404,-7436,-1312,-4864,1135
943045,1679,919,483,12196,7220,-5832,-1296,-8716,-6991
943055,1677,936,487,13392,5996,-4784,-1312,-10278,-12849
943065,1677,932,484,15628,3940,-4328,-1360,-10725,-14738
943075,1678,935,473,17432,4280,-2776,-1328,-8008,-12660
943085,1681,935,485,18952,4280,-3724,-1312,-1990,-9061
943095,1684,935,477,18776,3584,-6080,-1312,2773,-4691
943105,1682,937,484,17352,3376,-7628,-1312,5740,-828
943115,1685,937,475,15828,4032,-7784,-1280,8143,878
943125,1677,938,487,15500,5152,-7920,-1296,9941,-402
943135,1677,942,469,15052,6216,-7984,-1280,10191,-2534
943145,1679,938,490,15120,6816,-9500,-1280,9063,-3731
943155,1677,937,479,15392,7008,-8800,-1328,6770,-3436
943165,1675,940,489,16424,6816,-8072,-1312,5442,-2479
943175,1679,935,477,17244,6152,-7588,-1296,4009,-1376
943185,1645,937,483,17436,5680,-5840,-1296,3127,182
943195,1677,921,487,17212,4592,-4000,-1312,3217,1998
943205,1684,907,467,17104,4032,-1780,-1296,5005,3453
943215,1679,949,475,16388,3772,-1512,-1296,7619,3805
943225,1676,937,465,16816,4192,-1684,-1328,8929,2213
943235,1676,934,473,16296,4620,-236,-1296,9895,742
943245,1675,937,474,16448,5528,-896,-1312,9798,-718
943255,1725,933,473,17000,5548,-1020,-1296,7076,-1964
943265,1677,932,483,16852,6448,184,-1296,4951,-2004
943275,1669,936,487,15748,5364,-2492,-1312,3646,-2052
943285,1681,986,473,15580,4568,-3744,-1280,2088,-3111
943295,1679,933,479,15604,3656,-4312,-1312,561,-4292
943305,1678,940,477,15656,2700,-5264,-1312,-920,-5105
943315,1677,936,471,16224,1772,-4908,-1312,-2281,-4717
943325,1687,933,479,16372,1312,-5140,-1344,-2528,-3698
943335,1677,935,484,16552,432,-6284,-1312,-2568,-2497
943345,1679,935,475,16244,256,-6640,-1264,-2034,-1295
943355,1679,936,477,15580,-120,-7052,-1312,-644,-315
943365,1679,937,473,15036,-144,-7204,-1328,700,-150
943375,1678,935,471,15084,680,-6048,-1280,2092,-184
943385,1679,937,483,15396,1096,-6056,-1280,2737,-405
943395,1675,937,469,15920,984,-5688,-1328,1372,-867
943405,1683,935,483,16108,1192,-3896,-1312,428,-719
943415,1717,933,483,16320,804,-3792,-1296,-211,-268
943425,1683,937,479,15648,460,-4336,-1328,-707,-110
943435,1679,937,469,15092,284,-5328,-1312,-975,-185
943445,1683,936,477,15640,400,-5328,-1296,-985,-870
943455,1683,937,483,16188,692,-4968,-1296,-567,-1953
943465,1677,937,477,16164,284,-5568,-1296,-586,-2206
943475,1687,928,483,16132,636,-5536,-1296,-979,-1451
943485,1678,933,489,15744,852,-5768,-1280,-753,-266
943495,1681,937,474,15572,912,-6440,-1328,-542,171
943505,1677,937,477,15384,1224,-6536,-1296,-545,226
943515,1675,937,483,15524,1096,-6060,-1280,-148,-200
943525,1679,933,475,15724,1404,-5804,-1296,-52,-629
943535,1691,933,475,15808,1424,-5524,-1312,605,-853
943545,1651,935,480,15992,1788,-5768,-1328,667,-838
943555,1659,935,487,16216,2560,-5468,-1296,1323,-729
943565,1673,954,477,16364,2276,-6296,-1312,964,-774
943575,1690,933,490,16764,1768,-5656,-1312,-583,-700
943585,1675,936,488,16848,512,-4816,-1312,-2377,-218
943595,1679,933,484,16428,-380,-5460,-1312,-4395,306
943605,1678,936,487,15856,-636,-5868,-1296,-5070,299
943615,1679,938,482,15660,328,-6548,-1280,-3938,-45
943625,1682,939,483,15516,676,-6796,-1312,-1683,-861
943635,1681,937,478,15572,1108,-5860,-1312,743,-1095
943645,1681,937,476,15896,1368,-6044,-1280,1889,-887
943655,1679,936,475,16000,1492,-6052,-1328,623,-496
943665,1679,935,471,15712,1844,-5040,-1312,-530,101
943675,1679,933,472,15564,2404,-4784,-1344,-805,775
943685,1703,935,473,15368,2624,-5628,-1296,-915,778
943695,1683,935,471,15064,2712,-5576,-1280,-1257,584
943705,1681,935,477,15188,2456,-5552,-1296,-1527,144
943715,1679,935,475,15408,2128,-5476,-1296,-1960,-295
943725,1677,941,469,15604,1628,-5892,-1280,-2469,-647
943735,1678,937,477,15960,1184,-5592,-1296,-2640,-766
943745,1677,934,474,16284,972,-4732,-1296,-1977,-557
943755,1682,935,476,16136,640,-5076,-1280,-1345,-124
943765,1657,935,477,16112,416,-5792,-1296,-1609,163
943775,1679,937,469,16092,256,-5416,-1296,-1961,218
943785,1683,934,471,15956,416,-6096,-1296,-2149,124
943795,1679,931,486,15860,576,-6216,-1296,-2523,207
943805,1677,935,491,15520,-184,-6088,-1312,-2772,565
943815,1677,935,467,15692,-864,-5880,-1312,-2837,533
943825,1679,937,472,15464,68,-6232,-1312,-1871,411
943835,1677,937,478,15688,1156,-6828,-1312,53,-262
943845,1683,938,478,16412,1288,-5852,-1312,1138,-729
943855,1677,936,471,16804,1568,-5240,-1280,805,-324
943865,1678,935,475,16376,2048,-5468,-1312,-517,603
943875,1677,935,479,16236,1852,-5504,-1296,-2629,1282
943885,1678,932,475,15992,800,-4784,-1312,-5116,1348
943895,1679,935,491,15316,68,-5280,-1312,-6926,806
943905,1677,937,487,14728,-1372,-6792,-1296,-7636,-129
943915,1677,935,470,15296,-1604,-6712,-1280,-6994,-678
943925,1679,971,467,15432,-48,-5900,-1296,-3148,-923
943935,1674,937,472,16060,916,-6352,-1280,2279,-888
943945,1677,937,475,16336,1116,-9496,-1312,4053,-73
943955,1678,934,477,16580,1532,-4484,-1296,4314,880
943965,1681,934,473,16424,1700,-5564,-1328,1752,1700
943975,1677,934,471,16176,1640,-5896,-1296,-1631,1505
943985,1679,935,471,15908,980,-5288,-1328,-4654,598
943995,1677,934,475,16032,364,-4952,-1280,-6463,-6
944005,1682,935,488,15944,-404,-5504,-1296,-7150,-476
944015,1679,937,489,15980,-940,-5760,-1296,-6836,-291
944025,1683,938,479,15656,-1404,-6332,-1312,-5397,120
944035,1678,937,484,15668,-1324,-5820,-1312,-2618,245
944045,1678,936,487,16020,-680,-6560,-1280,306,367
944055,1679,935,473,16100,784,-6792,-1296,2266,483
944065,1678,935,476,16216,1524,-6096,-1296,2589,807
944075,1679,935,471,16032,2244,-5996,-1312,1647,1184
944085,1677,936,475,15944,2508,-5880,-1312,-564,1548
944095,1677,936,473,15592,2256,-6076,-1312,-2966,1397
944105,1679,937,475,15496,1220,-6260,-1312,-5221,615
944115,1679,934,475,15520,192,-5980,-1328,-6393,-118
944125,1676,931,478,15692,-416,-5656,-1312,-5672,-408
944135,1679,957,485,16100,-928,-5868,-1312,-3732,-367
944145,1683,933,471,16384,-1024,-4744,-1312,-854,245
944155,1675,934,468,16580,312,-5588,-1296,2481,770
944165,1677,937,469,16296,2024,-6660,-1296,4288,888
944175,1678,943,477,16036,2700,-6756,-1312,4270,1121
944185,1677,934,484,15708,2492,-6964,-1280,2461,1616
944195,1677,926,524,15304,1880,-7224,-1296,-680,1705
944205,1681,937,486,15116,276,-6788,-1312,-3458,1144
944215,1678,937,477,15496,-1628,-6540,-1296,-4371,-76
944225,1682,937,484,16148,-2832,-6608,-1296,-3946,-826
944235,1677,937,477,16664,-3064,-6512,-1280,-1403,-470
944245,1682,918,479,17280,-2812,-6268,-1296,2425,538
944255,1677,936,461,17536,-956,-6140,-1296,6219,1686
944265,1676,934,483,16756,1152,-6524,-1312,8038,3044
944275,1678,935,495,16340,2060,-6608,-1296,7594,3707
944285,1679,939,500,16292,1644,-6284,-1280,4076,3803
944295,1683,939,502,15728,868,-5760,-1296,-190,3562
944305,1678,936,502,15552,-660,-6072,-1296,-4389,2723
944315,1679,936,488,15872,-1564,-5764,-1280,-5842,1681
944325,1673,937,490,16516,-1956,-5220,-1344,-4450,1362
944335,1683,933,479,17020,-2124,-5028,-1312,-597,1481
944345,1676,937,471,17964,-824,-5116,-1312,3798,2131
