Time,MMG1,MMG2,MMG3,MMG4,EMG,AccelX,AccelY,AccelZ,GyroX,GyroY,GyroZ
0,828,799,976,765,1129,3644,-16288,1144,-1079,-25,-271
4,822,801,975,767,1081,3748,-16392,1136,-1055,-37,-266
7,813,785,963,749,1008,3676,-16332,1188,-1051,-14,-248
10,815,787,970,745,962,3700,-16352,1080,-1006,-46,-226
13,811,785,960,746,923,3716,-16404,1080,-1001,-26,-210
16,816,785,963,748,881,3716,-16372,1160,-986,-32,-210
19,813,794,959,745,848,3776,-16336,1088,-955,-34,-220
22,815,784,965,748,815,3788,-16348,1164,-917,-18,-191
25,813,784,964,749,775,3776,-16324,1092,-900,-14,-170
28,813,785,967,748,741,3784,-16384,1160,-911,-14,-167
31,816,783,960,750,710,3868,-16440,1012,-886,-37,-150
34,812,781,965,749,686,3752,-16292,1088,-885,-52,-156
37,810,781,960,750,651,3876,-16276,1168,-878,-28,-132
40,814,783,971,750,625,3856,-16364,1260,-866,10,-119
43,814,784,961,753,595,3784,-16308,1224,-872,8,-116
46,816,785,976,752,576,3820,-16296,1240,-860,-1,-82
49,816,784,961,752,558,3848,-16424,1068,-858,-35,-76
52,814,782,964,753,530,3760,-16312,1120,-843,-36,-90
55,814,781,960,753,503,3912,-16264,1156,-872,-51,-58
58,813,784,961,752,487,3792,-16320,1164,-838,-59,-50
61,810,778,960,754,466,3856,-16444,1132,-848,-81,-50
64,813,779,967,759,448,3812,-16368,1140,-834,-79,-38
67,811,774,960,753,432,3832,-16344,1284,-850,-85,-46
70,814,773,960,757,416,3776,-16360,1296,-835,-103,-24
73,815,770,960,765,400,3880,-16256,980,-841,-78,-21
76,815,770,964,755,381,3740,-16348,1116,-838,-79,-10
79,797,770,962,757,372,3804,-16284,1120,-805,-69,-35
82,815,771,963,755,356,3640,-16240,1168,-818,-80,-29
85,816,773,966,755,347,3620,-16324,1188,-821,-98,-2
88,816,771,966,760,331,3676,-16300,1076,-820,-102,-22
91,816,768,961,757,318,3680,-16296,1172,-796,-97,-45
94,816,771,967,759,309,3616,-16360,1268,-798,-96,-7
97,811,772,961,754,299,3656,-16252,1212,-803,-116,-17
100,815,774,970,753,286,3668,-16272,1108,-782,-135,-17
103,813,775,964,753,282,3612,-16212,1204,-796,-154,-24
106,816,775,965,752,268,3532,-16400,1100,-781,-181,-4
109,816,782,963,756,258,3580,-16360,1248,-789,-175,-20
112,816,782,969,761,243,3576,-16284,1172,-778,-169,-24
115,816,773,965,752,243,3580,-16232,1304,-795,-181,-24
118,816,784,967,753,240,3500,-16352,1160,-829,-252,-20
121,815,784,967,749,230,3588,-16236,1232,-824,-249,-51
124,814,783,960,752,223,3564,-16352,1184,-813,-207,-20
127,816,785,971,751,213,3600,-16260,1128,-841,-204,-30
130,816,784,961,752,213,3672,-16356,1148,-830,-121,-30
133,816,773,970,751,208,3476,-16468,1276,-774,-142,-23
136,838,777,970,752,198,3376,-16452,1080,-823,-260,-9
139,816,783,977,752,192,3428,-16324,1092,-871,-261,-25
142,816,781,971,752,192,3480,-16244,1236,-841,-392,20
145,816,780,961,751,188,3552,-16416,1220,-738,-211,-3
148,818,780,969,752,185,3660,-16388,1308,-746,-94,4
151,816,781,968,752,177,3644,-16400,1192,-792,-185,-17
154,815,784,962,752,176,3592,-16472,1132,-759,-123,-8
157,811,783,965,755,170,3632,-16480,1160,-738,-170,16
160,816,779,964,753,167,3708,-16436,1064,-746,-155,-1
163,815,780,964,753,161,3672,-16352,1336,-743,-91,-27
166,815,784,965,752,160,3548,-16448,1196,-737,-168,-30
169,816,780,966,752,157,3428,-16152,1252,-753,-228,-2
172,816,782,971,752,151,3468,-16304,1272,-738,-339,-15
175,814,775,967,752,150,3592,-16432,1252,-694,-233,21
178,815,774,966,752,145,3640,-16364,1316,-704,-165,24
181,811,773,966,754,145,3516,-16456,1100,-697,-144,10
184,811,775,967,753,143,3496,-16324,1304,-737,-170,15
187,809,772,969,757,139,3520,-16356,1228,-728,-206,39
190,815,779,965,753,141,3468,-16288,1204,-742,-212,-9
193,816,775,965,762,133,3544,-16312,1260,-770,-246,3
196,807,776,966,753,136,3568,-16368,1136,-768,-221,5
199,816,775,962,757,130,3676,-16280,1336,-772,-176,-14
202,815,774,967,759,128,3548,-16284,1180,-771,-167,-20
205,816,778,966,752,126,3456,-16312,1212,-797,-218,-17
208,816,779,976,751,123,3384,-16372,1148,-785,-275,-53
211,816,779,962,751,126,3556,-16324,1132,-776,-269,-49
214,816,783,967,752,123,3600,-16420,1176,-791,-263,-35
217,814,784,967,752,119,3588,-16376,1072,-831,-307,-63
220,816,780,975,751,116,3544,-16392,1188,-810,-345,-2
223,819,765,965,753,117,3532,-16368,1128,-845,-363,-75
226,817,782,970,754,117,3576,-16316,1140,-877,-379,-64
229,816,782,969,752,118,3508,-16292,1160,-873,-413,-50
232,816,781,970,752,112,3556,-16300,1340,-896,-421,-78
235,816,775,967,763,114,3524,-16372,1200,-903,-409,-50
238,816,775,965,752,112,3576,-16508,1196,-892,-433,-72
241,817,774,966,752,112,3612,-16472,1240,-906,-402,-60
244,816,774,962,754,111,3580,-16316,1404,-919,-414,-36
247,808,777,968,754,111,3708,-16212,1264,-912,-375,-72
250,818,778,976,753,111,3684,-16336,1228,-927,-335,-33
253,822,782,966,755,109,3576,-16296,1352,-934,-338,-37
256,817,784,967,753,112,3456,-16280,1260,-856,-305,-64
259,816,784,970,752,112,3548,-16332,1356,-829,-258,-24
262,816,781,967,753,107,3716,-16380,1208,-875,-306,-32
265,811,781,971,755,107,3476,-16316,1300,-916,-345,-69
268,812,784,967,754,103,3568,-16348,1256,-850,-317,-60
271,816,784,962,752,103,3628,-16436,1220,-862,-283,-32
274,816,784,971,762,104,3480,-16336,1312,-861,-306,-37
277,817,781,966,749,103,3468,-16384,1444,-853,-302,-43
280,816,784,967,759,102,3488,-16436,1396,-844,-341,-20
283,818,784,966,752,103,3468,-16320,1316,-846,-324,-40
286,816,803,969,754,102,3512,-16424,1208,-858,-339,-48
289,819,784,969,753,100,3620,-16348,1300,-860,-331,-11
292,816,785,970,754,99,3632,-16308,1312,-874,-338,-25
295,819,784,970,752,96,3632,-16340,1284,-892,-352,-19
298,816,784,965,752,100,3608,-16488,1268,-829,-314,-9
301,816,782,967,752,102,3688,-16248,1128,-896,-319,-43
304,817,784,967,754,98,3680,-16456,1224,-913,-313,-53
307,816,784,965,755,95,3348,-16536,1292,-816,-144,-34
310,819,781,964,752,98,3656,-16376,1168,-921,-45,-73
313,818,782,971,755,98,3560,-16432,1024,-968,-275,-118
316,816,781,963,762,91,3472,-16448,1276,-914,-365,-94
319,830,782,966,752,94,3724,-16208,1452,-981,-307,-99
322,816,782,970,755,93,3580,-16316,1268,-956,-367,-54
325,816,782,993,752,91,3700,-16280,1340,-949,-368,-55
328,830,784,967,758,92,3712,-16400,1328,-915,-349,-52
331,814,780,965,753,91,3868,-16256,1388,-880,-243,13
334,817,783,970,754,91,3828,-16252,1328,-872,-160,-5
337,817,779,967,762,98,3816,-16224,1244,-853,-183,-23
340,817,781,962,757,89,3888,-16396,1204,-829,-10,-31
343,816,783,969,757,97,3900,-16244,1480,-785,86,-2
346,815,778,965,752,90,3892,-16132,1412,-818,42,-3
349,816,780,970,753,90,3752,-16192,1312,-802,0,-15
352,816,779,967,753,85,3652,-16428,1260,-764,35,-18
355,815,779,963,752,90,3824,-16432,1428,-786,13,-36
358,816,768,962,753,94,3872,-16168,1436,-844,19,-88
361,816,779,967,755,96,3704,-16196,1268,-749,-113,5
364,817,784,970,752,89,3568,-16036,1468,-892,-141,-71
367,816,784,963,752,89,3540,-16312,1496,-915,-227,-111
370,816,782,969,752,93,3692,-16304,1464,-920,-61,-119
373,811,784,965,752,93,3760,-16380,1512,-935,-17,-119
376,814,784,962,757,89,3440,-16488,1208,-949,-61,-93
379,813,782,965,750,91,3440,-16536,1268,-952,-148,-82
382,819,783,970,746,93,3496,-16488,1256,-1022,-190,-151
385,814,782,971,773,90,3560,-16480,1348,-968,-126,-147
388,816,784,972,752,85,3532,-16428,1180,-932,-240,-77
391,812,781,965,752,90,3488,-16376,1380,-1029,-260,-145
394,815,782,961,765,93,3656,-16696,1292,-959,-400,-65
397,814,784,969,757,91,3692,-16808,1096,-917,-373,-45
400,811,778,963,754,90,3944,-16544,1060,-862,-169,65
403,812,779,964,756,91,4140,-16568,1272,-945,177,24
406,816,782,961,758,85,3904,-16556,1076,-933,59,10
409,810,780,966,763,91,3848,-16456,1176,-871,249,14
412,810,778,970,759,91,3932,-16424,1252,-878,236,-3
415,816,774,970,762,90,3908,-16344,1112,-905,293,3
418,816,771,963,759,87,3980,-16388,1504,-766,793,19
421,816,774,962,759,90,3644,-16024,1504,-949,417,-73
424,814,775,965,757,89,3344,-16008,1208,-1016,19,-117
427,806,777,963,752,90,3464,-15796,2004,-1069,371,-141
430,802,780,967,767,87,3392,-16044,1640,-1032,125,-17
433,808,775,963,744,88,3520,-16136,1640,-1009,-157,57
436,811,779,966,753,89,3636,-16376,1300,-971,164,67
439,811,780,964,752,90,4188,-16320,1464,-1019,719,28
442,809,775,967,754,92,3968,-16148,1276,-995,837,39
445,811,774,967,751,89,3648,-16240,1284,-1054,702,-42
448,806,781,962,752,90,3436,-16140,1240,-1168,335,-172
451,815,782,966,749,85,3204,-16180,1344,-1077,-60,-175
454,813,783,966,749,91,3776,-16232,1184,-984,-107,-4
457,814,783,967,748,85,3852,-16336,752,-959,31,53
460,810,783,969,750,89,3596,-16388,1168,-964,-186,18
463,802,782,967,752,83,3496,-16612,992,-957,-444,-11
466,811,783,966,751,85,3672,-16504,892,-990,-482,-11
469,807,781,967,756,89,3908,-16532,904,-959,-371,12
472,810,784,965,756,92,3904,-16468,1108,-938,-125,-9
475,813,784,967,757,86,3784,-16392,1184,-953,-2,-14
478,812,784,963,757,85,3848,-16556,1240,-894,274,-9
481,810,784,963,759,90,4004,-16576,1224,-864,589,-18
484,813,783,971,755,85,3800,-16540,1148,-851,885,-50
487,811,784,964,753,87,3760,-16700,1504,-804,1021,-24
490,814,785,963,755,86,3820,-16620,1220,-854,1067,-68
493,811,783,963,755,88,3684,-16624,1452,-796,1024,-80
496,807,784,960,759,88,3596,-16576,1356,-798,993,-94
499,811,779,963,752,87,3556,-16572,1484,-793,890,-61
502,806,783,960,759,85,3568,-16416,1360,-803,823,-90
505,809,784,967,757,90,3456,-16464,1576,-833,666,-84
508,809,782,958,755,91,3440,-16512,1416,-818,463,-76
511,803,775,960,754,87,3536,-16368,1236,-824,344,-85
514,809,779,960,758,83,3380,-16376,1380,-831,251,-89
517,809,779,969,758,91,3532,-16352,1352,-880,204,-107
520,805,784,965,758,90,3604,-16148,1248,-877,228,-116
523,808,777,965,752,85,3576,-16248,1244,-863,274,-91
526,805,777,962,754,87,3576,-16216,1436,-833,374,-74
529,814,779,962,757,92,3568,-16208,1176,-855,467,-47
532,806,777,960,755,88,3624,-16204,1260,-811,592,-36
535,805,772,970,754,90,3696,-16096,1364,-797,646,-10
538,805,778,960,761,90,3532,-16164,1200,-797,710,11
541,803,770,960,757,89,3548,-16048,1436,-813,751,3
544,798,768,961,756,87,3540,-16152,1344,-792,756,6
547,816,771,956,759,93,3456,-16156,1252,-805,730,17
550,807,769,960,758,87,3472,-16072,1400,-843,663,24
553,815,771,959,758,90,3436,-16268,1360,-876,610,28
556,814,770,962,760,92,3512,-16236,1376,-894,561,2
559,810,767,961,759,90,3420,-16168,1244,-921,499,-32
562,811,770,961,752,87,3448,-16268,1324,-961,393,-44
565,816,773,959,752,85,3476,-16264,1288,-985,311,-65
568,814,770,967,753,92,3368,-16252,1240,-1020,214,-69
571,806,772,966,754,86,3360,-16168,1244,-1052,122,-87
574,816,769,973,752,91,3272,-16184,1284,-1074,103,-102
577,814,769,966,751,91,3308,-16212,1248,-1039,25,-128
580,815,771,962,750,91,3248,-16264,1416,-1058,9,-147
583,825,774,964,754,87,3460,-16332,1092,-1031,-14,-109
586,814,781,964,753,94,3328,-16212,1092,-1106,24,-157
589,816,784,959,751,87,3464,-16260,1344,-1002,216,-105
592,815,785,960,752,95,3420,-16256,1332,-1088,174,-150
595,815,785,962,752,87,3356,-16272,1088,-1023,143,-119
598,818,788,965,751,92,3304,-16252,1224,-1047,191,-133
601,815,785,962,749,91,3348,-16236,1360,-1089,239,-139
604,817,788,965,751,92,3328,-16288,1256,-1080,221,-142
607,816,788,968,750,87,3232,-16120,1224,-1105,217,-137
610,816,786,968,753,90,3244,-16232,1344,-1119,196,-130
613,816,786,969,749,90,3308,-16288,1356,-1122,216,-170
616,815,784,966,754,90,3308,-16232,1352,-1155,192,-163
619,814,784,968,752,85,3428,-16272,1144,-1169,162,-158
622,816,785,970,750,85,3412,-16220,1252,-1177,141,-141
625,817,784,965,753,88,3400,-16236,1356,-1205,102,-164
628,815,784,964,752,93,3392,-16356,1204,-1185,49,-151
631,819,785,961,752,87,3324,-16256,1216,-1219,-2,-200
634,816,791,967,752,91,3436,-16244,1160,-1220,-51,-173
637,812,785,967,754,86,3420,-16268,1120,-1218,-87,-203
640,816,784,969,750,89,3488,-16256,1196,-1228,-66,-218
643,816,784,963,753,95,3516,-16224,1344,-1222,-50,-213
646,811,781,956,750,87,3476,-16256,1144,-1204,-66,-198
649,816,782,967,753,91,3480,-16292,1156,-1192,-113,-219
652,815,783,957,754,84,3592,-16300,1168,-1192,-60,-233
655,813,778,972,752,93,3516,-16276,1176,-1143,-51,-227
658,817,779,969,753,90,3464,-16220,1092,-1143,-19,-237
661,817,781,960,753,86,3544,-16412,1164,-1118,-22,-214
664,816,778,967,753,89,3492,-16300,1148,-1093,-17,-227
667,816,781,969,752,86,3548,-16412,1040,-1069,17,-204
670,817,783,961,756,91,3488,-16444,1216,-1083,3,-256
673,819,777,965,753,87,3500,-16408,1164,-1049,-14,-237
676,816,782,962,754,90,3568,-16388,1084,-1081,1,-221
679,816,782,965,752,89,3592,-16404,1176,-1051,9,-252
682,817,784,969,763,91,3536,-16380,1040,-1030,-38,-209
685,821,784,970,752,87,3424,-16384,1144,-1085,-5,-241
688,819,785,963,753,90,3648,-16364,1236,-1096,63,-233
691,821,786,965,753,86,3720,-16404,1052,-1086,0,-230
694,819,784,962,752,94,3640,-16412,1004,-1093,-112,-215
697,817,785,966,751,85,3588,-16400,1108,-1088,-83,-213
700,816,784,965,752,89,3684,-16400,1068,-1085,-108,-218
703,816,786,976,752,90,3612,-16488,1004,-1067,-151,-199
706,818,784,964,752,90,3544,-16352,1180,-1031,-183,-183
709,816,783,962,752,93,3632,-16324,1124,-1039,-187,-196
712,816,783,970,752,87,3568,-16364,1312,-1011,-215,-145
715,819,783,966,757,86,3684,-16336,1092,-1020,-250,-187
718,816,781,963,752,86,3676,-16408,1240,-1002,-259,-186
721,817,783,967,757,86,3672,-16332,1172,-982,-268,-164
724,819,782,962,752,89,3720,-16236,1312,-971,-215,-177
727,823,785,965,755,91,3684,-16264,1216,-987,-171,-153
730,818,784,963,754,89,3672,-16300,1220,-955,-142,-171
733,821,784,968,752,91,3600,-16272,1480,-964,-119,-159
736,821,786,963,761,88,3760,-16192,1396,-954,-97,-159
739,817,784,967,752,92,3656,-16312,1112,-951,-156,-186
742,819,787,965,754,87,3688,-16152,1196,-945,-184,-154
745,820,784,972,752,85,3624,-16224,1228,-938,-174,-163
748,819,786,973,755,87,3576,-16248,1320,-940,-186,-160
751,822,785,963,753,90,3680,-16264,1208,-952,-240,-145
754,820,784,969,752,94,3644,-16352,1300,-946,-291,-116
757,821,784,965,753,87,3612,-16316,1504,-961,-293,-135
760,821,784,970,754,92,3644,-16328,1272,-983,-272,-138
763,814,783,966,754,86,3588,-16312,1336,-1005,-338,-138
766,821,784,969,752,90,3452,-16288,1208,-1007,-375,-134
769,817,784,965,752,91,3604,-16208,1212,-1002,-374,-138
772,821,777,971,752,89,3684,-16244,1344,-1017,-396,-115
775,819,782,964,751,87,3544,-16252,1280,-1033,-384,-95
778,824,783,964,754,90,3600,-16328,1148,-1062,-391,-127
781,820,803,966,753,87,3700,-16344,1144,-1051,-353,-122
784,822,796,967,751,90,3660,-16268,1360,-1040,-373,-107
787,821,784,962,754,89,3688,-16336,1196,-1065,-366,-94
790,818,783,969,752,91,3736,-16300,1196,-1089,-368,-106
793,818,784,966,752,88,3692,-16308,1228,-1069,-334,-105
796,831,784,964,752,85,3704,-16264,1340,-1080,-363,-74
799,819,787,975,752,87,3744,-16188,1288,-1096,-371,-101
802,819,785,963,752,93,3808,-16284,1144,-1086,-351,-99
805,820,785,970,757,89,3736,-16332,1132,-1051,-347,-67
808,819,785,964,752,87,3828,-16304,1168,-1055,-380,-63
811,819,786,966,752,87,3736,-16272,1140,-1035,-391,-65
814,815,786,965,752,91,3816,-16344,1464,-1006,-372,-83
817,817,785,966,752,91,3788,-16296,1248,-1015,-371,-60
820,816,788,964,752,89,3776,-16288,1148,-992,-352,-69
823,820,793,971,771,89,3804,-16300,1324,-1010,-394,-55
826,821,790,965,758,91,3764,-16252,1196,-1021,-380,-68
829,819,784,966,752,93,3804,-16320,1312,-999,-398,-73
832,818,786,963,757,94,3856,-16232,1272,-1021,-418,-50
835,816,784,967,753,87,3876,-16308,1504,-1005,-385,-78
838,822,786,965,756,94,3876,-16260,1136,-1039,-371,-40
841,816,784,965,753,87,3720,-16344,1256,-1054,-373,-45
844,816,785,966,757,87,3840,-16264,1248,-1086,-393,-52
847,818,784,965,753,89,3776,-16292,1332,-1067,-407,-40
850,816,782,969,755,95,3764,-16436,1212,-1108,-442,-23
853,816,783,965,752,89,3712,-16244,1196,-1111,-477,-19
856,816,784,965,753,89,3700,-16356,1088,-1132,-451,-31
859,816,783,964,752,94,3688,-16424,1260,-1140,-435,-22
862,817,783,970,752,93,3744,-16368,1196,-1107,-430,-2
865,817,784,966,753,91,3756,-16416,1048,-1131,-439,33
868,816,782,971,754,89,3776,-16256,1176,-1122,-422,22
871,817,785,967,756,93,3804,-16392,1024,-1104,-394,23
874,816,785,973,755,93,4128,-16292,992,-1220,-296,18
877,816,775,966,757,93,3832,-16460,1072,-1320,146,-162
880,827,783,965,757,94,3904,-16292,1096,-1248,307,-224
883,816,784,973,762,91,3824,-16460,1144,-1172,-56,-91
886,814,784,966,755,86,3468,-16396,996,-1164,-437,-59
889,816,763,971,763,91,3576,-16408,1148,-1083,-448,-18
892,816,778,966,761,93,3876,-16300,1176,-1085,-287,12
895,811,767,970,761,92,3736,-16376,1180,-1038,-215,-7
898,802,783,963,758,91,3840,-16388,1132,-1018,-181,17
901,814,777,963,763,91,3732,-16360,1216,-966,-281,88
904,806,780,967,761,91,3644,-16236,1092,-914,-305,115
907,815,780,965,756,95,3720,-16492,1124,-898,-279,114
910,815,786,967,767,89,3632,-16424,1172,-942,-279,80
913,816,782,970,753,94,3788,-16272,1096,-934,-287,64
916,815,783,970,752,96,3524,-16368,1116,-897,-317,103
919,816,784,971,755,87,3648,-16372,1232,-889,-322,86
922,813,784,974,752,94,3700,-16332,1116,-880,-342,86
925,815,784,969,753,94,3628,-16320,1108,-840,-310,97
928,814,786,973,756,91,3636,-16368,1112,-838,-370,122
931,811,784,974,753,85,3720,-16272,1104,-817,-342,118
934,811,784,971,752,90,3580,-16468,1128,-786,-300,129
937,814,798,963,753,95,3720,-16288,1064,-794,-258,100
940,816,784,972,754,94,3656,-16352,1112,-776,-203,134
943,816,786,969,752,92,3704,-16280,1200,-737,-173,171
946,811,784,972,753,92,3832,-16412,1020,-736,-161,173
949,809,783,969,754,90,3636,-16376,1060,-731,-138,152
952,807,783,973,746,90,3708,-16452,920,-727,-141,163
955,813,783,966,757,90,3716,-16308,1080,-712,-142,153
958,814,782,971,758,90,3708,-16444,1020,-693,-141,189
961,805,784,966,763,91,3756,-16372,1100,-682,-102,179
964,816,783,971,765,90,3732,-16272,1160,-686,-101,184
967,833,781,967,758,89,3732,-16384,1184,-677,-65,172
970,816,784,970,752,94,3664,-16232,1132,-678,-108,179
973,815,781,971,754,98,3684,-16304,996,-683,-106,185
976,815,778,966,763,89,3628,-16236,1188,-686,-158,169
979,813,781,969,757,89,3636,-16348,1272,-679,-137,174
982,815,778,966,758,87,3620,-16252,1124,-682,-139,167
985,816,783,972,755,93,3580,-16324,1144,-695,-138,183
988,814,778,966,754,93,3636,-16300,1240,-663,-112,178
991,818,782,973,758,93,3464,-16288,1096,-676,-109,187
994,800,775,963,761,91,3640,-16340,1108,-692,-94,162
997,816,784,971,753,87,3484,-16332,1180,-693,-84,159
1000,807,781,966,755,89,3496,-16292,1252,-692,-89,159
1003,815,782,971,757,93,3492,-16284,1176,-712,-71,145
1006,816,784,966,753,87,3400,-16368,1188,-722,-31,147
1009,814,781,967,753,91,3376,-16332,1160,-729,-52,133
1012,814,790,967,753,91,3420,-16324,1140,-720,-100,123
1015,816,784,965,753,92,3396,-16296,1128,-741,-110,125
1018,815,783,970,752,90,3436,-16312,1208,-747,-124,108
1021,816,778,965,759,89,3468,-16268,1268,-752,-161,115
1024,813,781,971,756,91,3532,-16392,1144,-759,-158,77
1027,813,781,972,752,87,3536,-16340,1140,-759,-184,85
1030,816,777,966,753,93,3520,-16328,1104,-761,-185,70
1033,815,773,971,755,94,3576,-16272,1128,-775,-174,78
1036,816,767,970,758,92,3496,-16420,1156,-760,-210,52
1039,816,771,972,763,90,3544,-16268,1056,-749,-172,42
1042,816,771,969,758,86,3636,-16320,1232,-788,-187,33
1045,814,778,971,757,87,3656,-16328,1132,-782,-156,31
1048,816,778,976,754,96,3676,-16344,1176,-790,-150,9
1051,815,783,971,755,94,3480,-16336,1172,-794,-152,22
1054,818,782,972,751,89,3572,-16264,1144,-804,-124,30
1057,815,779,972,754,90,3456,-16316,1156,-802,-125,38
1060,815,783,973,754,87,3492,-16372,1364,-788,-130,18
1063,816,784,975,757,86,3520,-16400,1152,-809,-164,-3
1066,817,784,966,759,91,3404,-16360,1156,-813,-163,10
1069,816,782,971,753,89,3496,-16292,1156,-803,-181,5
1072,813,783,960,752,86,3428,-16372,1116,-820,-206,-12
1075,816,779,967,754,93,3464,-16372,1256,-858,-259,-25
1078,816,781,966,751,89,3344,-16244,1144,-847,-266,-20
1081,816,784,971,749,93,3368,-16388,1216,-887,-300,-29
1084,814,781,966,750,93,3396,-16416,1144,-901,-287,-54
1087,816,784,967,747,87,3432,-16336,1264,-906,-278,-70
1090,814,782,961,752,91,3416,-16456,1140,-941,-288,-54
1093,816,783,966,752,90,3384,-16404,1228,-922,-340,-72
1096,813,782,967,752,85,3308,-16488,1160,-930,-335,-92
1099,815,777,963,752,93,3400,-16500,1088,-946,-329,-119
1102,815,780,962,752,87,3416,-16444,1292,-973,-350,-114
1105,802,784,971,749,89,3460,-16384,1260,-997,-342,-129
1108,814,783,964,749,89,3432,-16476,1060,-993,-330,-139
1111,816,784,965,749,89,3380,-16264,1076,-1001,-330,-163
1114,816,785,965,749,87,3500,-16444,1096,-992,-338,-150
1117,816,784,969,750,90,3532,-16396,1252,-1007,-345,-151
1120,815,783,967,747,84,3520,-16388,1092,-1011,-351,-188
1123,813,782,966,749,86,3432,-16460,1332,-997,-370,-165
1126,811,781,967,751,91,3504,-16364,1296,-997,-349,-189
1129,816,783,967,749,90,3604,-16472,1132,-976,-359,-162
1132,815,782,963,751,87,3496,-16332,1260,-974,-361,-181
1135,821,779,965,751,88,3544,-16304,1232,-994,-346,-175
1138,825,784,963,750,88,3608,-16308,1140,-970,-359,-165
1141,815,777,963,754,92,3568,-16352,1128,-945,-324,-180
1144,813,774,965,752,90,3568,-16316,1208,-938,-319,-161
1147,816,778,961,751,86,3608,-16328,1208,-946,-313,-169
1150,815,781,966,752,91,3584,-16312,1120,-960,-277,-180
1153,816,799,962,751,90,3540,-16264,1328,-952,-305,-182
1156,814,775,963,752,93,3532,-16248,1224,-937,-317,-161
1159,816,773,971,749,90,3592,-16240,1088,-952,-280,-163
1162,811,781,961,753,90,3628,-16220,1280,-928,-311,-147
1165,818,777,970,747,90,3596,-16156,1268,-942,-322,-179
1168,818,775,969,753,87,3564,-16196,1264,-941,-303,-175
1171,816,783,961,751,89,3632,-16316,1208,-945,-316,-184
1174,817,778,965,751,89,3660,-16296,1060,-947,-375,-175
1177,816,778,963,747,92,3644,-16228,1192,-954,-418,-196
1180,814,781,962,747,90,3592,-16308,1188,-974,-399,-201
1183,815,778,961,751,85,3532,-16280,1184,-960,-383,-220
1186,814,778,966,752,90,3720,-16252,1312,-978,-359,-199
1189,811,777,967,752,91,3732,-16252,1156,-984,-380,-200
1192,814,783,961,751,87,3644,-16268,1184,-983,-332,-183
1195,819,778,966,752,91,3664,-16408,1104,-990,-311,-201
1198,816,778,966,752,87,3876,-16332,1224,-1047,-217,-186
1201,816,777,970,752,87,3436,-16204,1348,-1048,-359,-199
1204,816,784,967,757,87,3376,-16524,1400,-946,-361,-130
1207,818,782,971,747,88,3848,-16340,916,-1002,-223,-233
1210,811,779,971,751,87,3736,-16528,1188,-983,-97,-251
1213,816,783,963,746,89,3516,-16408,1212,-1044,-50,-218
1216,831,782,987,752,85,3548,-16496,1128,-846,-192,-151
1219,816,785,966,754,90,3720,-16388,1208,-1009,-334,-190
1222,813,770,967,752,93,3644,-16328,1328,-938,-364,-165
1225,816,779,975,747,87,3656,-16304,1192,-960,-255,-179
1228,816,783,968,746,90,3832,-16320,1220,-1059,-253,-224
1231,813,781,966,750,81,3960,-16124,1372,-1163,152,-273
1234,817,781,963,751,89,4020,-16204,1444,-1177,328,-344
1237,816,780,965,750,91,3728,-16156,1284,-1100,-86,-223
1240,819,794,967,752,93,3348,-16240,1448,-1072,-449,-160
1243,814,784,966,741,86,3624,-16192,1288,-1019,-571,-71
1246,816,782,965,752,86,3816,-16116,1260,-1030,-435,-89
1249,818,782,961,752,89,3936,-16112,1340,-981,-373,-91
1252,817,784,970,752,91,3960,-15992,1200,-990,-352,-93
1255,819,781,970,752,89,4064,-16072,1288,-949,-505,-85
1258,817,779,973,752,88,4144,-16172,1168,-942,-489,-159
1261,819,780,978,749,87,4240,-16248,1008,-982,-380,-245
1264,816,784,976,749,94,4076,-16456,940,-1023,-284,-209
1267,816,797,967,752,91,3876,-16496,776,-1039,-84,-121
1270,820,785,960,752,94,3580,-16636,804,-1045,140,-4
1273,817,790,959,754,87,3288,-16476,888,-1057,291,113
1276,818,785,958,759,90,3244,-16484,1004,-1030,382,143
1279,816,778,964,759,92,3244,-16476,1308,-876,138,200
1282,816,779,967,759,85,3324,-16496,1444,-736,-244,241
1285,807,781,975,763,90,3704,-16360,1500,-702,-475,178
1288,816,777,973,761,88,4016,-16360,1536,-787,-430,107
1291,815,775,971,754,89,4076,-16300,1452,-825,-372,116
1294,818,779,975,755,87,3932,-16300,1344,-884,-345,117
1297,816,780,976,755,84,3976,-16396,1276,-890,-243,142
1300,816,779,970,753,85,3856,-16320,1284,-879,-246,149
1303,816,778,966,754,93,3956,-16292,1304,-906,-121,131
1306,823,780,967,755,85,3856,-16288,1124,-902,4,134
1309,812,785,966,763,89,3736,-16320,1060,-946,96,161
1312,815,779,960,757,91,3688,-16436,1116,-972,133,152
1315,815,781,967,758,86,3688,-16356,1168,-989,144,156
1318,816,779,960,759,87,3724,-16408,1240,-988,132,141
1321,814,774,966,766,86,3796,-16424,1260,-981,127,128
1324,814,770,974,755,85,3876,-16416,1448,-968,80,96
1327,809,775,966,759,89,3772,-16472,1388,-953,45,93
1330,809,769,970,760,91,3836,-16428,1332,-950,3,89
1333,813,778,967,758,87,3816,-16508,1240,-963,-77,68
1336,806,771,967,757,91,3984,-16424,1164,-990,-134,85
1339,810,774,965,755,83,3836,-16488,1196,-1015,-92,93
1342,811,772,966,759,86,3864,-16468,1156,-1037,25,114
1345,810,773,967,751,84,3716,-16404,1240,-1050,82,117
1348,810,775,966,759,89,3776,-16428,1288,-1023,174,146
1351,809,775,967,757,89,3808,-16352,1360,-1004,217,123
1354,814,782,967,752,87,3696,-16468,1328,-1028,207,159
1357,809,782,971,752,91,3804,-16456,1344,-1020,184,137
1360,806,783,965,752,85,3836,-16388,1488,-1046,178,136
1363,815,779,966,754,89,3816,-16488,1432,-1043,128,135
1366,813,784,971,752,87,3900,-16424,1428,-1065,78,145
1369,810,781,973,752,88,3824,-16424,1364,-1073,66,144
1372,810,777,966,751,85,3940,-16360,1584,-1083,45,153
1375,806,774,972,753,90,3896,-16420,1380,-1041,43,136
1378,811,769,962,753,90,3700,-16316,1228,-1072,107,186
1381,805,771,966,757,86,3688,-16296,1352,-1121,93,228
1384,807,767,971,761,86,3624,-16440,1300,-1110,59,212
1387,806,768,963,758,85,3904,-16360,1252,-1118,51,245
1390,807,771,965,759,93,3980,-16328,1464,-1125,37,251
1393,809,768,966,758,91,3816,-16196,1312,-1164,62,247
1396,806,780,970,758,87,3848,-16256,1568,-1133,39,263
1399,810,778,970,764,84,3964,-16308,1496,-1074,29,238
1402,810,771,967,761,87,4024,-16348,1492,-1045,-7,255
1405,813,775,966,758,82,4112,-16248,1380,-1088,8,210
1408,814,771,967,754,86,3880,-16236,1580,-1111,73,251
1411,811,773,971,752,86,3796,-16184,1332,-1206,90,282
1414,816,775,967,753,91,3620,-16312,1344,-1201,53,302
1417,807,771,965,766,83,3848,-16236,1416,-1173,24,309
1420,811,779,963,758,83,3820,-16236,1552,-1184,-14,328
1423,811,775,968,755,83,3696,-16316,1548,-1189,-17,331
1426,813,778,971,743,88,3732,-16192,1456,-1255,-11,354
1429,810,774,963,762,85,3648,-16164,1440,-1282,-16,359
1432,807,778,967,758,83,3668,-16252,1384,-1331,-61,396
1435,812,780,970,778,88,3592,-16324,1320,-1343,-136,398
1438,813,778,966,755,84,3716,-16168,1296,-1411,-113,409
1441,813,783,973,753,83,3516,-16256,1100,-1381,-114,413
1444,803,784,962,758,86,3708,-16204,1256,-1374,-75,451
1447,809,783,963,758,87,3508,-16184,1324,-1395,-199,409
1450,813,784,965,754,89,3684,-16200,1208,-1387,-11,424
1453,810,785,971,753,88,3556,-16248,1056,-1378,-85,481
1456,809,785,969,751,83,3552,-16140,1148,-1380,-16,458
1459,810,788,967,753,88,3512,-16248,1220,-1366,-37,478
1462,810,784,960,757,84,3620,-16120,1108,-1402,-122,447
1465,810,786,965,752,88,3560,-16184,1212,-1384,-92,462
1468,806,791,971,752,82,3536,-16124,1084,-1399,-106,445
1471,814,791,970,752,88,3576,-16180,932,-1398,-85,451
1474,816,784,972,753,84,3500,-16328,856,-1414,-45,411
1477,813,789,970,752,89,3668,-16252,932,-1410,-22,419
1480,807,789,963,751,88,3580,-16280,1004,-1420,7,385
1483,810,786,967,753,82,3528,-16360,988,-1449,-47,383
1486,809,787,969,754,87,3552,-16364,868,-1416,-51,379
1489,817,791,963,752,85,3552,-16368,900,-1460,-77,375
1492,809,786,965,754,83,3548,-16396,908,-1456,-64,358
1495,811,792,963,758,83,3544,-16368,772,-1467,-41,344
1498,810,787,962,758,83,3552,-16284,804,-1420,-8,362
1501,812,790,986,760,83,3540,-16404,708,-1420,4,340
1504,810,790,965,755,83,3444,-16396,832,-1399,8,317
1507,816,790,962,754,87,3320,-16464,704,-1375,11,302
1510,816,791,966,756,90,3412,-16408,644,-1364,13,270
1513,825,784,961,753,87,3048,-16608,736,-1192,-85,350
1516,813,784,961,753,82,3336,-16388,872,-1212,-371,408
1519,813,784,963,752,82,2952,-16704,456,-850,-587,689
1522,816,784,962,753,88,3232,-16604,852,-960,-397,595
1525,813,783,967,752,85,3216,-16404,776,-1068,-249,463
1528,816,784,970,752,87,3192,-16524,688,-1058,-147,480
1531,816,785,966,751,87,3368,-16544,656,-1056,-69,513
1534,815,781,960,751,85,3208,-16596,480,-1064,-59,494
1537,814,784,965,752,86,3184,-16512,608,-1133,-93,392
1540,814,784,960,755,87,3228,-16576,684,-1169,127,341
1543,811,770,962,761,87,3276,-16500,752,-1217,240,269
1546,813,780,960,753,90,3204,-16652,608,-1178,216,301
1549,814,774,963,756,81,2992,-16712,600,-1181,220,240
1552,814,782,960,754,81,3224,-16640,628,-1190,181,241
1555,815,779,966,758,85,2992,-16784,664,-1099,241,223
1558,814,775,963,761,82,3112,-16668,672,-1102,220,186
1561,815,771,963,763,81,2992,-16716,692,-1020,216,207
1564,816,783,960,758,83,2960,-16728,744,-993,194,197
1567,816,762,963,760,83,3000,-16716,628,-924,205,188
1570,815,752,959,759,86,3008,-16668,612,-983,261,89
1573,816,759,962,759,85,2820,-16756,732,-923,352,44
1576,816,752,962,765,82,2968,-16576,632,-844,321,101
1579,813,763,963,762,83,2844,-16596,544,-889,324,82
1582,815,755,965,758,81,2884,-16524,580,-885,246,48
1585,816,758,961,757,83,2812,-16596,664,-820,188,59
1588,816,764,961,759,84,2812,-16424,648,-827,163,4
1591,816,768,962,755,86,2924,-16372,688,-829,107,31
1594,819,763,950,753,83,2728,-16400,844,-799,149,9
1597,817,755,962,756,86,2952,-16416,784,-787,157,-5
1600,825,755,965,759,82,2840,-16400,724,-791,244,-2
1603,815,752,960,753,82,2960,-16380,512,-752,207,-28
1606,815,752,964,752,82,2828,-16264,888,-798,306,-104
1609,815,752,959,752,82,2868,-16288,836,-759,361,-137
1612,816,753,959,752,82,2852,-16284,948,-764,339,-156
1615,816,755,963,750,86,2860,-16184,896,-759,220,-224
1618,819,763,961,752,83,2880,-16164,1108,-745,179,-231
1621,816,762,965,752,83,2960,-16268,872,-731,194,-241
1624,816,771,960,749,86,2880,-16248,944,-721,217,-261
1627,818,767,966,746,81,3012,-16108,1204,-707,220,-267
1630,815,773,961,746,88,3012,-16320,1072,-722,177,-288
1633,819,783,966,745,83,3012,-16156,980,-710,164,-294
1636,822,784,963,745,83,3108,-16112,900,-729,166,-339
1639,823,785,966,743,86,2968,-16308,1060,-729,147,-347
1642,819,783,963,743,87,3092,-16216,928,-742,134,-335
1645,821,782,963,740,84,3028,-16224,1048,-766,95,-363
1648,830,781,969,741,81,3112,-16240,1156,-762,122,-349
1651,821,783,967,739,83,3188,-16248,1024,-765,92,-377
1654,819,777,963,743,86,3216,-16292,1084,-777,58,-359
1657,826,774,971,746,87,3176,-16368,1024,-800,29,-375
1660,823,771,963,747,81,3212,-16292,1040,-842,-1,-387
1663,819,775,965,749,83,3328,-16340,912,-827,34,-385
1666,821,777,963,746,86,3296,-16332,952,-842,32,-381
1669,819,774,965,749,85,3368,-16316,1112,-858,4,-399
1672,819,775,965,751,82,3224,-16532,1044,-900,29,-381
1675,819,773,960,750,84,3336,-16408,1156,-918,81,-380
1678,823,771,965,750,82,3380,-16360,1000,-930,72,-389
1681,821,777,966,750,82,3292,-16380,1248,-971,114,-376
1684,822,774,974,750,81,3412,-16372,1152,-965,133,-391
1687,821,778,969,752,87,3412,-16320,1196,-1014,152,-380
1690,825,780,973,752,82,3424,-16372,1336,-1020,170,-374
1693,825,782,973,752,85,3420,-16368,1196,-1036,180,-360
1696,822,782,966,746,81,3468,-16260,1120,-1066,195,-379
1699,826,796,963,748,83,3428,-16380,1248,-1056,186,-381
1702,822,800,969,752,80,3492,-16336,1284,-1051,167,-382
1705,821,801,967,751,82,3428,-16344,1160,-1049,144,-405
1708,822,805,965,752,82,3532,-16464,1132,-1015,138,-378
1711,816,807,973,750,84,3500,-16548,1240,-1028,94,-404
1714,819,811,971,752,81,3492,-16492,1028,-985,100,-371
1717,819,810,972,751,82,3484,-16520,1028,-972,45,-388
1720,816,807,969,752,81,3620,-16448,1244,-984,-41,-368
1723,816,800,971,752,80,3644,-16512,1048,-954,-91,-327
1726,811,801,966,754,81,3660,-16556,980,-925,-33,-334
1729,814,797,966,757,90,3768,-16468,1024,-914,-18,-320
1732,799,798,966,755,83,3744,-16488,1040,-906,7,-348
1735,816,795,962,755,85,3664,-16520,1072,-865,18,-270
1738,807,790,961,759,91,3760,-16544,1008,-845,5,-285
1741,811,793,962,762,80,3968,-16500,1140,-843,41,-290
1744,803,795,961,761,82,3904,-16432,1076,-811,42,-266
1747,810,797,965,767,83,3956,-16476,1116,-785,68,-258
1750,812,799,964,763,85,3900,-16404,992,-743,86,-251
1753,805,800,964,761,83,3908,-16472,1028,-723,122,-260
1756,806,805,967,761,91,4000,-16416,1204,-708,110,-252
1759,804,799,964,763,83,3964,-16340,1040,-716,134,-242
1762,805,805,965,763,83,3960,-16348,964,-697,118,-255
1765,805,801,965,765,83,3972,-16496,1156,-700,58,-271
1768,805,798,970,763,82,4012,-16324,936,-702,12,-265
1771,808,798,963,764,80,3936,-16424,968,-676,19,-246
1774,814,798,961,763,81,3900,-16380,736,-684,13,-238
1777,807,799,974,762,85,3888,-16348,984,-646,52,-216
1780,813,805,965,764,87,3908,-16476,932,-634,92,-192
1783,816,812,959,767,83,3812,-16468,956,-650,37,-210
1786,811,807,965,764,87,3816,-16372,808,-655,-1,-184
1789,815,805,961,766,84,3760,-16320,584,-682,-82,-177
1792,813,799,961,768,80,3760,-16460,888,-676,-112,-191
1795,813,810,961,763,85,3632,-16496,796,-692,-167,-205
1798,807,803,960,767,81,3732,-16576,996,-549,9,-150
1801,816,799,960,763,85,3656,-16292,620,-791,-46,-258
1804,816,801,966,754,85,3444,-16364,844,-643,-165,-104
1807,816,795,969,766,83,3556,-16256,940,-706,-124,-170
1810,815,790,967,766,80,3496,-16384,860,-656,-51,-134
1813,816,784,962,758,87,3616,-16364,708,-727,-290,-177
1816,816,784,963,756,89,3384,-16444,896,-663,-238,-168
1819,816,775,960,757,81,3488,-16364,804,-659,-398,-104
1822,815,768,964,754,82,3508,-16384,896,-646,-447,-84
1825,815,763,960,757,85,3424,-16256,900,-646,-433,-128
1828,818,765,961,755,81,3456,-16420,936,-619,-448,-130
1831,818,768,961,755,85,3436,-16388,820,-605,-565,-116
1834,815,765,962,759,81,3368,-16300,1012,-616,-543,-119
1837,817,765,965,761,86,3444,-16380,964,-583,-465,-131
1840,816,763,965,754,84,3384,-16316,964,-590,-476,-148
1843,816,767,966,756,80,3316,-16536,792,-586,-448,-105
1846,815,763,967,755,83,3376,-16400,1104,-563,-398,-124
1849,816,761,965,762,83,3472,-16444,1120,-570,-385,-123
1852,814,757,963,755,87,3376,-16444,1104,-565,-383,-112
1855,816,763,961,762,85,3304,-16412,1068,-561,-404,-121
1858,809,762,963,758,85,3444,-16436,1188,-568,-380,-120
1861,815,768,967,757,84,3304,-16328,1096,-540,-409,-127
1864,816,768,961,757,89,3288,-16400,1160,-556,-385,-127
1867,809,766,965,760,81,3328,-16268,1172,-530,-394,-128
1870,814,768,967,775,87,3300,-16364,1184,-536,-395,-129
1873,821,769,963,759,86,3308,-16324,1076,-523,-428,-165
1876,814,766,976,775,85,3388,-16332,1184,-507,-418,-156
1879,811,759,967,756,84,3316,-16284,1208,-517,-441,-167
1882,812,779,962,756,85,3472,-16436,1160,-506,-430,-165
1885,811,752,966,754,81,3420,-16416,1184,-519,-466,-185
1888,815,752,963,758,85,3404,-16260,1016,-535,-435,-185
1891,813,752,960,758,81,3420,-16312,1192,-567,-414,-188
1894,816,771,971,757,83,3464,-16300,1216,-571,-409,-193
1897,814,769,960,754,81,3412,-16224,1200,-655,-365,-217
1900,830,770,965,754,80,3460,-16204,1208,-713,-203,-264
1903,816,772,970,765,84,3580,-16120,1160,-868,158,-432
1906,812,780,982,758,85,3372,-16208,1176,-844,-94,-367
1909,816,782,962,753,83,2932,-16308,1308,-713,-487,-245
1912,816,778,970,759,82,3028,-16196,944,-812,-748,-331
1915,817,782,963,756,83,3256,-16172,1360,-853,-537,-359
1918,817,781,967,753,88,3372,-16112,1192,-811,-560,-315
1921,816,775,962,756,82,3348,-16204,1108,-817,-404,-294
1924,817,773,962,752,84,3432,-16056,1240,-885,-219,-298
1927,816,777,966,755,81,3156,-16260,1360,-842,-413,-225
1930,819,784,960,752,81,3336,-16276,1364,-903,-375,-297
1933,816,775,967,751,90,3432,-16256,1292,-829,-415,-238
1936,820,782,961,751,85,3384,-16216,1256,-931,-416,-311
1939,816,784,965,750,80,3404,-16184,1448,-991,-394,-368
1942,817,779,987,749,85,3488,-16244,1516,-1015,-301,-363
1945,816,784,963,743,86,3444,-16308,1280,-1045,-366,-380
1948,816,784,963,747,87,3464,-16320,1368,-1036,-405,-354
1951,817,784,960,747,83,3424,-16324,1296,-1035,-374,-376
1954,817,779,967,743,83,3332,-16444,1276,-1005,-512,-343
1957,821,779,968,750,83,3476,-16336,1316,-992,-541,-324
1960,816,777,970,747,85,3632,-16408,1372,-984,-473,-300
1963,820,768,963,748,86,3620,-16416,1476,-966,-370,-305
1966,825,771,970,749,87,3552,-16304,1280,-970,-249,-288
1969,821,783,970,752,90,3672,-16408,1280,-986,-181,-270
1972,819,791,965,748,87,3740,-16352,1172,-973,-95,-291
1975,821,793,965,743,83,3608,-16408,1356,-995,-80,-275
1978,822,789,968,749,85,3556,-16404,1076,-935,-42,-263
1981,820,784,964,747,83,3788,-16408,1212,-1077,97,-364
1984,816,790,960,750,88,3724,-16320,1324,-1109,271,-422
1987,817,787,970,749,87,3732,-16392,1268,-929,295,-340
1990,815,789,967,749,86,3656,-16352,1096,-1135,216,-423
1993,818,784,971,752,83,3488,-16520,1340,-974,11,-321
1996,815,785,961,751,83,3504,-16528,1072,-1004,-200,-329
1999,816,783,965,754,84,3592,-16436,1144,-997,-93,-325
2002,814,793,963,762,87,3608,-16448,1172,-997,-39,-319
2005,814,782,960,752,83,3732,-16476,1236,-1006,-82,-291
2008,816,784,961,752,82,3700,-16432,1172,-1007,-87,-289
2011,815,784,957,766,81,3732,-16384,1128,-978,5,-288
2014,811,782,960,751,82,3700,-16404,1372,-964,30,-276
2017,814,784,960,752,89,3724,-16380,1212,-985,92,-277
2020,810,784,960,749,85,3692,-16492,1204,-944,76,-276
2023,816,784,960,749,83,3792,-16468,1088,-931,43,-230
2026,816,784,961,747,82,3748,-16356,1116,-952,-28,-239
2029,811,774,963,750,90,3736,-16364,1028,-982,-66,-276
2032,813,778,956,752,82,3780,-16360,1156,-1000,-71,-321
2035,814,779,963,752,87,3704,-16256,1080,-998,-43,-315
2038,813,781,961,770,87,3748,-16264,1164,-988,-34,-305
2041,815,778,957,752,82,3732,-16232,1080,-1007,-3,-292
2044,813,779,960,750,86,3744,-16348,1160,-995,91,-273
2047,816,785,963,752,83,3772,-16344,992,-1058,150,-306
2050,814,790,960,752,86,3688,-16348,1132,-1036,202,-247
2053,815,790,962,752,85,3768,-16328,1008,-1077,173,-264
2056,817,798,964,749,93,3720,-16264,1100,-1072,187,-293
2059,816,798,966,751,89,3636,-16224,1084,-1166,126,-328
2062,816,811,966,752,85,3648,-16396,940,-1085,6,-299
2065,817,805,961,753,82,3612,-16284,1116,-1059,-2,-279
2068,816,797,965,753,89,3792,-16420,976,-1043,18,-253
2071,815,787,964,749,83,3764,-16328,1048,-997,40,-221
2074,815,786,963,750,89,3812,-16356,1044,-1008,44,-204
2077,813,787,960,750,85,3924,-16500,1092,-973,60,-179
2080,813,784,962,749,83,3764,-16292,1060,-1000,-65,-148
2083,814,781,963,746,84,3936,-16348,828,-1045,-78,-160
2086,813,781,962,752,83,3980,-16412,1012,-950,270,-136
2089,814,783,965,752,85,4012,-16452,1012,-1045,105,-152
2092,815,782,964,759,86,3608,-16312,824,-1072,-146,-208
2095,816,783,965,755,87,3608,-16380,976,-1071,-186,-210
2098,813,784,960,753,89,3692,-16356,1060,-1111,-224,-238
2101,816,782,962,754,85,3748,-16324,1160,-1030,-137,-208
2104,807,777,967,753,84,3764,-16300,1200,-986,-151,-176
2107,816,782,960,752,90,3768,-16384,1128,-995,-122,-153
2110,811,773,961,753,83,3792,-16336,1072,-986,-64,-125
2113,811,768,976,755,80,3812,-16400,1020,-1016,-55,-185
2116,805,770,963,753,86,3720,-16392,1188,-987,-18,-158
2119,814,771,960,754,84,3776,-16288,1056,-1021,37,-172
2122,815,778,964,759,85,3668,-16292,1148,-957,31,-177
2125,813,768,961,752,86,3812,-16248,1272,-982,112,-182
2128,815,770,963,752,86,3732,-16272,1160,-948,109,-162
2131,811,774,963,755,83,3768,-16268,996,-993,115,-176
2134,813,780,969,752,83,3660,-16340,1008,-933,109,-155
2137,811,779,960,752,89,3596,-16288,1076,-957,80,-196
2140,810,781,961,751,82,3696,-16212,1056,-1024,158,-269
2143,813,779,963,750,85,3616,-16360,1164,-919,111,-187
2146,803,784,966,750,87,3628,-16244,996,-1005,-61,-212
2149,813,782,965,748,87,3508,-16384,1020,-860,-31,-139
2152,811,782,964,752,82,3532,-16324,1084,-1004,-48,-244
2155,807,782,961,747,90,3612,-16404,1068,-896,-68,-170
2158,819,777,965,749,87,3628,-16360,836,-950,-212,-196
2161,809,780,964,749,83,3748,-16460,992,-920,-207,-167
2164,813,775,962,750,82,3632,-16400,860,-906,-195,-172
2167,813,775,960,751,84,3736,-16496,1020,-942,-186,-201
2170,806,779,972,747,82,3760,-16400,944,-900,-153,-161
2173,813,770,961,751,89,3796,-16560,876,-928,-95,-164
2176,812,766,973,750,83,3700,-16480,940,-922,-80,-183
2179,811,766,965,749,86,3720,-16608,1060,-919,-47,-188
2182,813,770,959,752,87,3724,-16476,952,-901,-18,-197
2185,817,765,966,752,84,3692,-16540,1008,-902,-49,-179
2188,807,766,965,749,83,3640,-16532,1004,-874,-73,-193
2191,809,766,962,757,80,3648,-16328,1128,-874,-37,-181
2194,814,782,965,752,103,3668,-16420,1128,-842,-89,-143
2197,815,762,960,749,97,3552,-16492,1012,-807,-105,-171
2200,814,762,956,751,90,3636,-16420,1088,-861,-65,-204
2203,813,764,960,749,94,3596,-16288,1108,-850,-155,-184
2206,812,763,959,752,93,3416,-16268,1148,-815,-314,-216
2209,815,767,963,751,91,3604,-16340,1200,-881,-409,-217
2212,815,762,961,752,88,3576,-16412,1060,-891,-554,-216
2215,813,767,966,751,93,3492,-16476,1100,-797,-568,-165
2218,816,758,960,749,94,3556,-16384,1156,-853,-538,-225
2221,813,773,963,747,91,3764,-16068,1260,-881,-237,-263
2224,807,779,970,749,91,3448,-16244,940,-784,-262,-302
2227,816,784,969,746,94,3520,-16304,1168,-738,10,-319
2230,816,783,968,740,93,3760,-16180,1396,-820,69,-310
2233,816,784,965,743,91,3600,-16288,980,-717,205,-306
2236,811,781,976,746,88,3564,-16092,1200,-879,292,-413
2239,811,788,961,743,87,3612,-16304,1132,-814,315,-348
2242,809,783,966,745,87,3652,-16316,932,-855,232,-377
2245,812,781,961,743,89,3404,-16348,1124,-854,268,-375
2248,815,781,963,752,91,3564,-16412,1128,-845,264,-387
2251,811,775,961,750,87,3576,-16488,1136,-865,90,-363
2254,809,775,949,745,89,3476,-16408,1128,-881,-118,-394
2257,811,779,961,749,87,3480,-16436,1192,-898,-269,-419
2260,811,777,959,752,87,3648,-16356,1052,-918,-3,-422
2263,810,782,963,752,86,3844,-16360,1032,-942,140,-412
2266,811,783,962,752,92,3784,-16392,1136,-943,357,-414
2269,811,782,962,757,91,3544,-16432,956,-900,313,-410
2272,816,780,960,746,85,3524,-16368,1052,-928,195,-392
2275,816,782,963,751,86,3420,-16360,1164,-957,83,-426
2278,813,779,964,752,87,3628,-16308,1144,-903,327,-416
2281,816,773,964,752,86,3540,-16304,1168,-864,244,-347
2284,813,779,960,751,88,3436,-16240,1160,-909,126,-360
2287,814,783,962,749,86,3376,-16288,1296,-932,16,-413
2290,816,783,955,751,85,3364,-16252,1124,-966,-63,-415
2293,816,785,963,751,89,3340,-16276,1212,-990,-120,-440
2296,816,785,963,750,87,3428,-16240,1060,-1012,-166,-398
2299,816,798,960,752,84,3376,-16304,1132,-1030,-141,-425
2302,816,816,964,745,82,3392,-16224,1296,-1059,-204,-452
2305,807,803,963,743,83,3584,-16328,1096,-1037,-311,-434
2308,820,804,966,749,86,3668,-16192,1188,-1187,-231,-503
2311,813,807,961,749,86,3512,-16340,1008,-1103,-417,-475
2314,805,802,985,753,86,3564,-16332,1228,-1141,23,-581
2317,803,803,964,746,85,3708,-16280,1028,-1080,291,-530
2320,816,800,965,743,85,3720,-16276,1072,-1054,29,-457
2323,818,793,966,748,82,3584,-16296,1116,-1095,-38,-484
2326,815,783,959,750,83,3752,-16324,1128,-1066,192,-488
2329,814,784,963,747,86,3544,-16264,1180,-1138,256,-522
2332,815,781,961,750,86,4060,-16268,1024,-1209,373,-532
2335,816,778,970,752,86,3868,-16296,1092,-1306,651,-633
2338,816,774,959,753,85,3952,-16204,1300,-1489,903,-894
2341,815,773,960,755,80,3556,-16364,960,-1351,427,-763
2344,815,774,959,755,89,3420,-16348,1016,-1304,55,-700
2347,815,776,961,761,84,3308,-16252,1112,-1253,-141,-690
2350,816,782,960,759,85,3480,-16212,984,-1246,-258,-690
2353,816,777,962,758,88,3724,-16416,1020,-1125,-187,-571
2356,817,769,960,755,87,3756,-16236,872,-1067,153,-565
2359,819,784,962,756,87,3732,-16072,1060,-1162,286,-634
2362,823,780,970,756,86,3776,-16252,1116,-1006,350,-609
2365,822,784,967,757,84,3604,-16144,908,-1059,170,-613
2368,823,785,961,754,83,3520,-16132,1012,-1088,212,-651
2371,821,795,963,751,83,3672,-16248,1128,-1024,307,-594
2374,825,791,966,752,85,3412,-16276,1064,-942,364,-559
2377,820,791,967,751,85,3452,-16120,884,-965,95,-501
2380,817,797,970,752,82,3368,-16364,916,-923,-86,-471
2383,818,798,970,749,86,3456,-16280,980,-969,-37,-502
2386,822,797,969,743,87,3552,-16144,1012,-989,-40,-529
2389,826,803,971,743,83,3568,-16236,984,-1006,-160,-549
2392,827,794,963,745,90,3528,-16320,984,-1015,-248,-558
2395,817,791,971,746,85,3788,-16280,992,-1110,-240,-611
2398,816,797,962,750,81,3804,-16272,1080,-1084,-94,-583
2401,819,787,961,747,84,3784,-16312,1208,-1118,0,-613
2404,816,789,965,749,85,3852,-16216,1020,-1124,-55,-599
2407,816,784,963,748,91,3820,-16288,1148,-1127,-106,-616
2410,821,777,965,752,81,3944,-16340,1172,-1147,44,-635
2413,823,780,966,750,87,3920,-16392,1256,-1074,83,-641
2416,816,783,963,747,86,3880,-16320,1076,-1070,49,-602
2419,817,782,967,752,90,3916,-16348,1220,-1019,-98,-590
2422,811,779,962,753,85,3900,-16292,980,-1018,-222,-562
2425,816,783,960,754,85,3836,-16276,1140,-1009,-81,-558
2428,815,781,965,752,85,4096,-16204,1268,-1049,165,-594
2431,816,785,971,752,85,4052,-16140,1168,-1005,272,-616
2434,818,784,963,752,84,3864,-16240,1144,-1023,272,-599
2437,816,784,961,755,86,3960,-16112,1040,-1047,298,-630
2440,818,787,962,752,84,3984,-16232,1216,-1016,294,-569
2443,816,788,967,751,83,3928,-16164,1180,-1043,329,-601
2446,816,797,960,752,85,4080,-16260,1056,-1055,259,-572
2449,817,800,971,752,85,3932,-16228,1204,-1044,408,-562
2452,817,798,970,752,86,3780,-16296,1208,-1076,210,-596
2455,817,806,975,752,84,3896,-16320,924,-1062,27,-520
2458,815,801,964,750,90,3792,-16388,1348,-1092,27,-554
2461,818,803,971,743,82,3984,-16320,1276,-1114,17,-570
2464,816,802,971,753,82,4148,-16264,1232,-1082,-48,-453
2467,816,795,971,743,88,4160,-16380,1184,-1095,-42,-480
2470,802,793,963,754,85,4160,-16404,1096,-1138,13,-500
2473,816,783,961,752,83,4248,-16292,1112,-1106,57,-523
2476,811,784,965,752,85,4280,-16328,1352,-1082,22,-439
2479,813,773,965,752,85,4200,-16372,1184,-1108,27,-446
2482,812,778,965,754,84,4280,-16372,1256,-1040,45,-391
2485,813,769,962,755,84,4312,-16352,1368,-1082,152,-411
2488,812,773,961,756,89,4344,-16380,968,-1072,62,-373
2491,816,769,961,758,82,4300,-16212,1224,-1103,100,-358
2494,816,771,961,759,83,4284,-16216,1160,-1116,132,-348
2497,816,780,962,753,89,4284,-16092,1088,-1150,133,-353
2500,811,781,965,759,82,4268,-16120,1184,-1165,116,-339
2503,818,784,965,750,87,4252,-16176,1236,-1199,69,-319
2506,823,784,965,752,81,4248,-16148,1140,-1161,12,-287
2509,816,782,966,757,82,4132,-16128,1224,-1195,41,-271
2512,817,794,965,752,82,4252,-16200,1148,-1192,55,-289
2515,818,790,968,753,82,4184,-16144,1044,-1203,142,-270
2518,816,787,967,749,83,4152,-16160,1204,-1199,87,-275
2521,817,798,969,752,83,4260,-16136,1080,-1175,70,-247
2524,814,796,975,762,86,4156,-16260,1368,-1178,126,-226
2527,817,802,967,751,89,4204,-16268,1080,-1183,213,-237
2530,816,802,970,751,89,4140,-16232,1212,-1106,200,-178
2533,814,805,971,753,85,4144,-16352,1056,-1125,125,-177
2536,825,804,959,752,87,4084,-16268,1168,-1077,62,-115
2539,814,806,969,753,87,4164,-16276,1064,-1101,-28,-87
2542,815,799,966,752,82,4208,-16360,1064,-1114,-44,-95
2545,811,798,960,752,89,4212,-16308,1124,-1102,-40,-77
2548,812,791,960,752,86,4220,-16464,1044,-1104,-136,-41
2551,812,784,964,752,86,4180,-16460,1056,-1123,-199,-48
2554,806,775,967,753,84,4212,-16420,996,-1138,-190,-67
2557,807,774,961,753,83,4180,-16376,1020,-1120,-193,-52
2560,811,775,959,753,91,4356,-16316,1072,-1111,-170,-20
2563,810,771,962,756,86,4128,-16312,976,-1105,-105,-16
2566,813,765,959,759,82,4136,-16320,1120,-1089,-107,-20
2569,807,771,965,752,82,4144,-16352,1072,-1100,-119,-33
2572,810,773,961,755,85,4128,-16304,1032,-1088,-132,-23
2575,814,781,962,758,85,4040,-16340,868,-1073,-104,-29
2578,814,784,958,755,89,4128,-16344,1100,-1034,-39,-25
2581,803,784,961,760,86,4108,-16272,960,-1016,51,-6
2584,808,789,963,758,81,4056,-16236,868,-992,66,15
2587,816,790,964,757,83,4164,-16240,932,-974,106,2
2590,815,794,970,756,87,3992,-16300,996,-962,128,4
2593,813,794,959,758,85,3964,-16356,840,-926,133,7
2596,809,792,966,754,83,4072,-16276,880,-914,130,33
2599,811,798,976,754,84,3988,-16412,948,-904,110,13
2602,815,794,966,757,84,4004,-16308,868,-888,79,35
2605,809,794,966,753,86,4156,-16232,904,-899,155,31
2608,813,794,961,759,87,4028,-16400,856,-893,92,55
2611,813,797,965,755,87,4020,-16320,992,-905,36,57
2614,807,795,960,753,86,4064,-16288,820,-902,2,45
2617,805,788,962,770,88,4028,-16236,912,-888,-23,63
2620,812,786,961,757,84,4048,-16368,936,-911,-31,54
2623,811,784,962,758,86,4076,-16348,952,-901,-46,53
2626,812,782,961,756,96,4132,-16332,932,-882,-77,69
2629,810,781,965,755,90,4160,-16252,1108,-876,-85,72
2632,815,779,960,759,86,3948,-16296,1076,-868,-58,78
2635,803,771,961,755,86,3940,-16232,796,-866,-93,81
2638,806,771,960,755,88,3960,-16272,992,-849,-89,62
2641,806,767,963,757,90,4000,-16212,860,-838,-96,79
2644,815,765,955,767,91,4052,-16200,848,-830,-54,68
2647,809,761,960,762,89,3876,-16128,924,-789,-31,48
2650,811,766,958,765,85,3984,-16244,988,-787,9,80
2653,810,758,965,757,91,3868,-16128,928,-804,0,63
2656,804,767,960,755,90,3856,-16160,824,-792,19,55
2659,815,740,963,753,89,3864,-16216,940,-785,22,80
2662,816,747,961,753,86,3856,-16228,1012,-793,19,81
2665,816,762,969,753,90,3772,-16188,912,-775,7,53
2668,815,784,966,752,86,3736,-16208,984,-778,-33,49
2671,812,787,964,750,91,3812,-16212,868,-758,-21,71
2674,816,786,969,756,90,3744,-16108,948,-781,-66,68
2677,816,784,970,755,85,3732,-16224,920,-773,-87,81
2680,818,784,964,753,83,3776,-16188,896,-748,-85,71
2683,813,784,969,752,91,3860,-16176,896,-755,-113,79
2686,815,784,963,752,87,3836,-16236,1180,-755,-163,76
2689,816,784,966,755,92,3948,-16308,1116,-786,-186,65
2692,816,781,961,759,85,3900,-16248,1124,-759,-193,99
2695,815,781,962,759,85,3932,-16280,1060,-761,-163,78
2698,811,776,965,752,90,3876,-16324,1104,-779,-133,93
2701,813,773,960,757,89,3772,-16196,1068,-779,-151,85
2704,812,779,962,755,91,3820,-16272,1068,-791,-128,72
2707,810,775,961,755,86,3888,-16216,1088,-815,-151,62
2710,815,784,959,754,90,3792,-16288,1140,-801,-140,68
2713,813,773,966,759,87,3780,-16264,1048,-819,-191,52
2716,814,773,965,753,84,3916,-16292,1092,-837,-148,30
2719,818,783,959,755,89,3672,-16256,1048,-829,-166,68
2722,816,777,966,755,92,3860,-16308,1188,-844,-166,68
2725,816,780,960,752,87,3716,-16204,1008,-854,-159,87
2728,816,775,967,742,87,3752,-16300,1080,-851,-137,41
2731,816,777,975,755,87,3752,-16268,1020,-844,-148,62
2734,816,773,959,752,87,3688,-16300,1036,-877,-160,53
2737,817,781,963,753,89,3684,-16192,1020,-872,-133,51
2740,817,773,963,755,86,3720,-16280,1092,-845,-182,41
2743,816,782,976,755,84,3784,-16328,1092,-873,-165,60
2746,815,781,979,756,87,3724,-16212,1228,-867,-216,55
2749,816,774,966,752,90,3840,-16196,1200,-867,-188,52
2752,820,775,966,763,91,3780,-16268,1244,-869,-206,63
2755,816,779,969,752,91,3784,-16292,1196,-872,-189,48
2758,811,782,967,753,87,3876,-16228,1048,-871,-175,39
2761,821,784,961,752,87,3784,-16256,1144,-872,-184,36
2764,815,783,966,753,90,3872,-16232,1092,-885,-156,15
2767,816,784,962,752,89,3928,-16264,1168,-881,-154,39
2770,817,784,962,752,87,3824,-16248,1132,-920,-153,39
2773,814,784,960,754,86,3856,-16328,1040,-892,-124,23
2776,816,787,964,754,94,3824,-16240,1228,-885,-115,24
2779,818,786,963,752,87,3864,-16288,1052,-912,-117,27
2782,816,784,963,752,96,3844,-16336,1036,-917,-130,17
2785,818,789,969,753,95,3864,-16252,1112,-909,-113,18
2788,820,787,964,753,91,3648,-16216,1104,-915,-143,17
2791,817,784,963,755,90,3796,-16172,1000,-909,-127,11
2794,816,785,965,752,90,3820,-16184,1016,-904,-151,31
2797,818,798,969,752,90,3744,-16176,944,-924,-176,5
2800,814,789,967,755,88,3664,-16296,1040,-931,-198,13
2803,816,791,963,757,86,3772,-16048,788,-951,-188,33
2806,813,797,967,754,84,3660,-16148,1028,-933,-194,6
2809,816,795,962,757,91,3660,-16188,904,-950,-233,2
2812,824,805,964,752,91,3716,-16152,900,-955,-264,3
2815,816,797,967,764,92,3808,-16160,920,-949,-300,-20
2818,814,794,966,752,89,3736,-16140,944,-976,-318,-16
2821,816,794,962,750,90,3728,-16232,912,-959,-332,-24
2824,819,802,958,752,93,3712,-16292,868,-942,-315,-36
2827,816,796,961,750,86,3768,-16240,780,-961,-318,-56
2830,815,791,962,763,89,3712,-16280,896,-961,-306,-60
2833,818,793,966,745,91,3796,-16164,848,-953,-314,-59
2836,816,795,962,750,90,3780,-16240,976,-942,-312,-45
2839,816,798,962,751,93,3828,-16268,924,-958,-309,-70
2842,816,798,962,751,87,3732,-16328,972,-938,-321,-75
2845,816,801,975,750,94,3900,-16384,888,-926,-345,-83
2848,817,810,962,750,94,3848,-16324,964,-902,-358,-73
2851,816,802,966,749,90,3964,-16344,900,-910,-338,-94
2854,816,797,963,751,90,3920,-16368,808,-863,-354,-98
2857,816,757,963,751,90,3876,-16400,1008,-839,-337,-92
2860,816,721,965,746,88,3964,-16356,816,-829,-344,-98
2863,816,733,967,747,90,3956,-16504,860,-806,-368,-108
2866,821,773,962,750,93,3976,-16384,940,-791,-358,-83
2869,812,775,969,751,87,3904,-16404,980,-793,-349,-106
2872,817,763,969,752,90,3996,-16348,788,-791,-376,-57
2875,816,757,971,752,94,4028,-16464,828,-785,-384,-72
2878,816,766,961,752,90,3956,-16436,992,-767,-372,-75
2881,802,770,964,750,92,4028,-16344,900,-793,-384,-60
2884,816,775,964,752,91,4000,-16408,900,-772,-408,-90
2887,822,767,961,752,92,4056,-16324,1040,-830,-462,-84
2890,816,766,960,755,91,3896,-16468,772,-764,-505,-60
2893,819,759,969,754,95,4128,-16336,976,-735,-387,-46
2896,817,765,971,754,91,4060,-16320,912,-813,-374,-83
2899,814,767,964,753,94,4016,-16364,808,-838,-430,-73
2902,817,763,961,759,91,4136,-16284,892,-821,-423,-25
2905,815,758,963,754,90,4080,-16204,924,-800,-404,-43
2908,814,766,962,759,94,3924,-16300,1024,-830,-406,-66
2911,816,759,961,754,91,3952,-16224,936,-819,-455,-57
2914,815,758,967,752,91,3940,-16316,964,-823,-515,-77
2917,815,763,962,751,90,3992,-16280,940,-784,-562,-65
2920,815,762,963,747,90,4000,-16392,896,-774,-491,-28
2923,814,771,967,751,96,4024,-16276,1020,-782,-484,-45
2926,816,774,963,752,87,3848,-16236,1048,-797,-459,-51
2929,815,782,966,751,93,3924,-16204,1012,-778,-460,-46
2932,816,783,970,752,90,3760,-16284,988,-817,-503,-22
2935,816,784,967,749,91,3800,-16320,996,-806,-503,-31
2938,814,783,963,752,89,3852,-16448,1012,-791,-526,-13
2941,815,787,967,749,93,3920,-16356,1032,-815,-510,-21
2944,805,784,966,752,95,3976,-16344,972,-810,-508,-22
2947,814,781,961,754,96,3976,-16376,1064,-796,-486,-24
2950,813,777,964,752,90,3856,-16368,1060,-787,-494,-23
2953,816,771,961,752,95,3924,-16436,996,-764,-495,-17
2956,814,720,964,751,94,3952,-16308,1264,-770,-506,-30
2959,808,739,971,751,94,3948,-16288,1256,-754,-515,-16
2962,816,753,969,752,96,4004,-16280,1016,-760,-519,-41
2965,816,761,966,752,91,4060,-16380,1092,-726,-507,-4
2968,816,755,969,739,91,3972,-16244,1172,-750,-491,0
2971,817,754,969,752,96,3996,-16264,1036,-756,-482,2
2974,816,754,967,752,93,4004,-16160,1200,-774,-496,-16
2977,801,757,965,752,93,3988,-16224,1156,-735,-481,-22
2980,811,752,963,752,95,3980,-16132,1172,-736,-483,2
2983,813,748,962,752,93,4040,-16276,1232,-782,-441,8
2986,827,755,960,755,91,4072,-16296,1120,-800,-420,2
2989,806,749,965,752,91,3936,-16248,1272,-773,-410,12
2992,810,748,965,753,91,3996,-16216,1132,-813,-391,19
2995,815,752,963,753,95,4016,-16268,1204,-823,-281,6
2998,805,758,970,757,92,3968,-16364,1068,-817,-282,27
3001,816,746,967,757,96,3836,-16224,1500,-895,-211,-26
3004,821,758,960,755,93,4036,-16248,1168,-932,-259,-11
3007,816,758,966,770,93,3992,-16220,1100,-868,-310,24
3010,816,761,960,751,94,4004,-16340,1212,-832,-160,61
3013,821,766,965,754,93,3968,-16228,1096,-960,-219,-7
3016,816,768,967,757,94,3940,-16312,1212,-935,-182,8
3019,815,771,969,754,95,3904,-16344,1104,-959,-323,-10
3022,811,775,970,754,94,3964,-16312,1296,-941,-321,30
3025,811,779,962,752,95,4016,-16224,1192,-987,-323,62
3028,816,780,983,752,94,4044,-16108,1296,-1026,-241,55
3031,811,787,963,753,90,3924,-16264,1156,-1035,-202,56
3034,815,799,970,752,93,3872,-16292,1140,-1065,-301,52
3037,816,794,969,753,96,3900,-16292,1088,-1031,-311,41
3040,815,793,970,757,91,3920,-16312,1180,-1046,-256,82
3043,816,794,966,752,93,3896,-16192,1300,-1058,-227,57
3046,806,784,963,754,92,3964,-16304,1196,-1043,-213,55
3049,815,788,961,752,94,3920,-16212,1076,-1042,-150,51
3052,811,784,963,752,95,4028,-16284,1088,-1054,-160,53
3055,813,786,960,753,94,4036,-16328,960,-1020,-111,63
3058,811,787,964,753,95,3952,-16320,1060,-1025,-108,45
3061,809,785,962,752,92,3872,-16304,1176,-1025,-79,43
3064,812,785,960,752,96,4080,-16408,1040,-1004,-93,50
3067,810,785,962,752,94,4012,-16312,1120,-1018,-59,56
3070,815,784,959,754,96,3932,-16260,1072,-1025,-30,41
3073,812,784,964,752,96,3964,-16440,1004,-1010,-42,19
3076,810,784,960,752,94,3960,-16244,1208,-1017,-33,43
3079,816,784,967,753,97,3956,-16380,976,-1008,16,47
3082,814,784,962,753,93,3980,-16312,1076,-1036,16,46
3085,816,781,966,756,94,3980,-16308,1072,-1026,72,57
3088,813,783,964,753,94,4000,-16344,1088,-1043,66,62
3091,810,784,967,754,94,3824,-16412,884,-1027,69,61
3094,816,779,964,752,96,3964,-16392,1068,-1037,82,46
3097,814,781,967,758,94,3928,-16404,1028,-1049,96,70
3100,816,781,963,755,95,3884,-16428,1044,-1046,120,66
3103,816,784,962,758,97,3976,-16324,960,-1058,103,74
3106,814,788,965,758,96,3916,-16436,912,-1034,97,67
3109,814,788,966,752,90,3792,-16444,1052,-1027,126,86
3112,816,791,962,758,94,3752,-16428,828,-1034,123,83
3115,813,784,962,759,95,3856,-16468,952,-1021,143,92
3118,816,785,966,762,94,3852,-16444,840,-1009,130,99
3121,817,779,968,759,98,3772,-16464,844,-998,145,70
3124,813,779,962,757,94,3756,-16444,816,-989,143,85
3127,816,781,960,757,92,3704,-16424,804,-981,135,91
3130,816,778,970,753,95,3844,-16356,828,-942,161,77
3133,814,778,965,754,97,3696,-16388,772,-920,157,83
3136,816,784,963,759,99,3740,-16496,820,-919,117,53
3139,813,777,961,754,96,3768,-16440,892,-878,111,38
3142,814,778,965,752,96,3676,-16388,744,-878,96,25
3145,816,778,964,752,94,3796,-16360,708,-850,91,34
3148,811,775,959,753,93,3740,-16316,892,-817,100,43
3151,811,775,959,752,97,3764,-16408,872,-820,102,2
3154,810,778,962,752,99,3872,-16420,776,-787,76,14
3157,811,776,961,758,96,3792,-16276,796,-765,61,-4
3160,813,770,959,752,97,3904,-16424,784,-759,65,-3
3163,806,771,958,754,97,3880,-16420,764,-751,112,25
3166,810,779,963,755,98,3840,-16380,1032,-722,66,-25
3169,812,773,960,754,95,3824,-16388,920,-719,93,-12
3172,811,775,971,754,95,3848,-16420,808,-683,86,-13
3175,815,772,967,755,97,3872,-16272,948,-697,103,-23
3178,814,770,960,752,98,3788,-16328,964,-664,95,8
3181,810,769,960,754,94,3740,-16328,896,-687,112,-17
3184,813,768,960,754,98,3848,-16404,776,-645,119,-18
3187,811,767,964,756,93,3724,-16316,912,-655,119,-8
3190,815,765,963,754,97,3760,-16380,924,-653,122,5
3193,811,762,962,753,97,3696,-16348,844,-674,123,-12
3196,816,777,967,757,96,3844,-16272,844,-660,114,-36
3199,815,773,960,752,96,3876,-16312,924,-672,81,-3
3202,816,774,965,755,98,3632,-16280,804,-671,80,1
3205,816,771,969,753,97,3672,-16276,888,-701,85,-4
3208,814,771,962,752,94,3760,-16304,884,-693,47,-4
3211,815,765,960,754,96,3752,-16396,964,-680,29,-3
3214,816,766,966,775,95,3740,-16336,1032,-696,-14,-23
3217,817,767,965,752,98,3720,-16220,936,-696,-7,-5
3220,816,749,967,770,96,3724,-16280,1028,-719,-25,-1
3223,816,764,963,752,99,3688,-16288,1020,-730,-42,-25
3226,815,764,960,752,93,3848,-16164,1156,-729,-42,-6
3229,817,764,969,752,98,3744,-16168,1028,-723,-88,-25
3232,822,771,973,750,93,3732,-16188,1120,-709,-93,-36
3235,816,769,965,752,93,3988,-16308,1200,-754,-73,-29
3238,812,769,958,753,96,3860,-16280,1112,-712,-99,-54
3241,816,768,962,755,94,3836,-16216,1136,-745,-63,-32
3244,813,773,965,753,91,3876,-16204,1176,-753,-67,-58
3247,816,772,962,753,93,3924,-16272,1236,-744,-68,-63
3250,814,773,967,754,93,3828,-16264,1104,-740,-58,-43
3253,816,773,960,758,96,3940,-16228,1268,-740,-36,-56
3256,817,773,969,757,97,3900,-16056,1320,-734,-36,-66
3259,816,770,966,758,97,3828,-16108,1276,-759,15,-46
3262,818,780,960,760,94,3912,-16192,1120,-770,2,-38
3265,816,774,970,754,93,3760,-16228,1284,-755,26,-41
3268,815,782,962,754,91,3880,-16180,1220,-789,13,-63
3271,816,780,963,752,94,3876,-16140,1404,-780,17,-29
3274,817,781,963,752,96,3788,-16200,1240,-804,2,-35
3277,815,779,966,754,94,3856,-16128,1232,-829,11,-50
3280,816,777,965,759,95,3696,-16204,1184,-862,-16,-18
3283,815,782,971,752,94,3872,-16276,1164,-862,-13,-47
3286,818,775,971,755,96,3680,-16184,1208,-898,-1,-37
3289,816,777,969,752,98,3732,-16240,1116,-891,-16,-28
3292,814,773,972,755,99,3712,-16256,1272,-920,-33,-12
3295,816,767,963,752,97,3780,-16300,1244,-928,-46,-23
3298,813,763,966,759,93,3760,-16384,1228,-927,-31,-27
3301,814,757,964,752,93,3856,-16368,1080,-966,-77,-24
3304,814,765,960,750,99,3776,-16340,1208,-1002,-69,-30
3307,813,762,967,755,92,3904,-16288,1236,-988,-50,-28
3310,811,760,967,756,98,3936,-16248,1344,-992,-27,-44
3313,816,762,966,752,96,3948,-16388,1232,-999,-34,-26
3316,816,765,962,757,96,3872,-16360,1316,-1006,20,-37
3319,816,767,961,753,97,3964,-16336,1288,-1009,38,-39
3322,815,763,967,755,96,3976,-16348,1120,-1010,27,-25
3325,817,765,963,752,95,3880,-16360,1296,-991,95,-34
3328,816,761,963,752,97,3908,-16260,1256,-1021,97,-46
3331,816,765,970,752,92,3796,-16412,1144,-1026,111,-26
3334,816,768,961,757,91,3836,-16296,1140,-1015,112,-27
3337,816,763,963,752,91,3708,-16344,960,-1036,67,-30
3340,816,767,966,752,93,3808,-16216,1088,-1029,90,-33
3343,815,767,969,752,95,3772,-16280,1212,-1010,124,-18
3346,815,769,969,752,86,3880,-16240,1192,-1031,126,-30
3349,816,771,972,752,95,3744,-16284,1144,-1026,162,-23
3352,815,770,962,752,94,3720,-16356,1052,-1031,146,-40
3355,814,768,965,753,96,3808,-16336,1048,-1029,143,-41
3358,816,770,960,752,94,3800,-16332,1132,-1018,156,-22
3361,810,769,962,752,90,3888,-16308,1220,-977,185,-27
3364,815,768,963,754,93,3768,-16328,1160,-977,199,-29
3367,816,768,969,752,94,3804,-16368,1140,-954,264,-26
3370,816,771,961,753,92,3856,-16364,1052,-927,249,-23
3373,807,776,961,754,94,3900,-16348,1040,-916,272,-29
3376,815,770,962,752,96,3880,-16376,1044,-921,310,-34
3379,815,773,969,754,91,3872,-16388,1020,-887,296,-28
3382,816,775,966,752,97,3976,-16356,1044,-866,361,-39
3385,813,778,965,752,94,3820,-16332,1084,-889,353,-38
3388,816,778,963,752,96,3852,-16344,936,-860,378,-6
3391,816,781,966,753,94,3864,-16288,916,-861,397,-24
3394,814,784,962,753,91,3792,-16276,1004,-841,324,-39
3397,811,778,961,752,91,3824,-16240,924,-854,304,-55
3400,815,784,963,752,96,3864,-16148,972,-855,345,-55
3403,816,784,963,771,91,3860,-16188,992,-839,339,-69
3406,814,781,962,753,94,3876,-16320,1000,-851,309,-47
3409,812,784,964,752,97,3856,-16308,972,-861,351,-79
3412,821,783,962,753,98,3812,-16388,1072,-820,377,-39
3415,815,784,967,752,93,3908,-16324,932,-862,350,-82
3418,816,785,969,753,90,3808,-16360,832,-843,303,-81
3421,816,784,964,755,90,3800,-16208,1040,-915,299,-94
3424,816,780,963,753,89,3860,-16372,952,-895,279,-90
3427,814,784,969,753,96,3768,-16356,956,-911,134,-85
3430,815,780,960,753,98,3716,-16400,1080,-923,68,-84
3433,816,783,963,754,92,3796,-16292,1016,-921,79,-72
3436,816,783,955,752,93,3944,-16284,1036,-933,124,-48
3439,815,778,963,742,93,3924,-16376,980,-880,262,-48
3442,814,782,963,755,94,3900,-16304,1016,-929,331,-36
3445,813,780,962,757,93,3872,-16300,956,-892,323,-54
3448,816,786,960,754,97,3864,-16248,1076,-912,318,-35
3451,815,782,964,756,95,3792,-16280,1084,-936,301,-28
3454,815,784,966,753,95,3788,-16232,1148,-924,272,-12
3457,815,784,964,754,91,3860,-16256,940,-910,267,-42
3460,815,784,964,755,91,3784,-16244,996,-922,221,-47
3463,815,783,968,753,96,3732,-16228,1208,-924,194,-27
3466,816,781,971,757,92,3852,-16304,1220,-918,168,-43
3469,816,773,963,757,94,3848,-16228,1156,-916,143,-9
3472,816,775,960,752,89,3816,-16228,1072,-932,121,-11
3475,811,787,962,755,91,3740,-16260,1036,-896,97,-11
3478,816,781,966,755,94,3868,-16228,1068,-917,70,-29
3481,813,772,969,757,97,3892,-16216,1144,-920,64,-10
3484,815,771,966,752,99,3748,-16280,1060,-923,56,-18
3487,816,769,961,757,90,3832,-16248,1088,-905,89,-7
3490,816,775,963,758,91,3808,-16276,980,-902,92,-34
3493,816,769,964,758,95,3804,-16280,1020,-913,104,-53
3496,805,762,961,757,96,3820,-16248,1120,-906,107,-55
3499,817,778,962,752,95,3728,-16204,1024,-891,77,-58
3502,815,777,972,752,93,3760,-16300,996,-907,65,-64
3505,813,774,964,752,96,3720,-16344,1100,-912,61,-68
3508,817,771,970,752,97,3712,-16320,1036,-921,28,-67
3511,816,774,960,754,94,3748,-16340,940,-904,1,-72
3514,816,768,963,752,96,3664,-16336,916,-921,-13,-63
3517,816,767,963,753,97,3704,-16280,1180,-946,-60,-66
3520,816,771,968,758,94,3816,-16292,1096,-940,-59,-70
3523,816,769,959,737,93,3824,-16332,1060,-935,-78,-74
3526,816,775,983,752,95,3908,-16276,1020,-926,-98,-79
3529,814,770,966,752,97,3792,-16356,940,-937,-101,-61
3532,816,775,965,752,94,3776,-16344,1232,-920,-74,-94
3535,815,780,967,752,99,3880,-16292,1092,-946,-59,-58
3538,817,784,965,754,94,3820,-16280,1028,-938,-81,-58
3541,816,782,966,752,97,3804,-16432,1008,-913,-24,-51
3544,816,788,966,753,94,3856,-16364,1028,-935,-22,-48
3547,816,785,966,752,92,3824,-16332,1228,-908,9,-43
3550,816,782,965,755,91,3792,-16324,972,-914,31,-53
3553,815,781,967,752,97,3760,-16304,1248,-886,16,-50
3556,814,776,965,752,96,3716,-16420,1048,-870,35,-49
3559,816,781,961,755,96,3812,-16276,1088,-898,28,-50
3562,815,773,967,752,95,3740,-16332,1004,-884,10,-64
3565,815,771,961,755,93,3752,-16300,1020,-867,23,-59
3568,815,771,966,752,92,3748,-16316,1008,-885,24,-66
3571,816,778,969,758,98,3772,-16200,1180,-869,-21,-63
3574,811,780,963,752,93,3804,-16264,1020,-877,-11,-83
3577,810,783,967,750,99,3772,-16308,1136,-873,-43,-81
3580,815,779,962,752,96,3900,-16252,1092,-875,-27,-65
3583,816,777,963,753,98,3856,-16288,1048,-866,-46,-89
3586,813,778,962,752,96,3876,-16220,1084,-848,-41,-61
3589,814,781,965,750,95,3888,-16240,1240,-859,-16,-85
3592,814,777,962,749,96,4020,-16188,1056,-859,-28,-61
3595,814,779,964,762,97,3880,-16176,1276,-811,-17,-103
3598,815,783,961,753,93,3868,-16232,1200,-810,-17,-107
3601,816,784,961,752,94,3896,-16272,1028,-824,-1,-96
3604,818,786,962,755,96,3952,-16276,1020,-813,1,-104
3607,816,786,966,751,98,3836,-16336,1180,-826,-8,-99
3610,816,792,966,752,95,3920,-16332,1116,-812,11,-103
3613,815,787,966,752,98,3856,-16344,1068,-813,18,-98
3616,814,784,964,752,97,3968,-16276,1084,-813,-1,-80
3619,815,784,965,754,96,3876,-16336,1096,-805,33,-61
3622,816,784,963,752,101,3896,-16428,1060,-795,6,-64
3625,814,785,965,752,95,3828,-16412,1008,-818,-17,-68
3628,815,782,961,752,96,3932,-16300,1180,-803,10,-74
3631,813,784,963,762,96,3760,-16380,1064,-819,2,-60
3634,816,785,960,755,98,3796,-16388,1024,-843,8,-60
3637,813,781,967,756,96,3856,-16248,1020,-843,24,-53
3640,813,784,965,757,97,3760,-16204,1104,-840,-2,-53
3643,813,777,967,758,98,3812,-16232,1152,-880,12,-60
3646,813,783,961,748,95,3840,-16304,1092,-859,5,-40
3649,824,778,959,753,100,3792,-16388,1120,-872,-13,-43
3652,811,773,963,758,99,3924,-16332,1212,-848,-11,-50
3655,813,775,966,757,98,3904,-16256,972,-873,-6,-60
3658,813,782,965,754,103,3848,-16360,1096,-874,-6,-36
3661,805,779,969,755,102,3912,-16276,1072,-849,-26,-35
3664,814,779,962,752,100,3820,-16248,1144,-812,18,-37
3667,814,769,963,752,99,3900,-16256,1112,-856,27,-46
3670,811,773,960,752,100,4000,-16216,1176,-801,31,-34
3673,816,778,961,752,106,3916,-16152,1032,-843,38,-26
3676,816,778,964,755,105,4032,-16276,1180,-804,46,-40
3679,817,780,963,752,100,3872,-16288,1104,-810,43,-46
3682,815,777,969,751,100,3812,-16364,1044,-796,47,-48
3685,810,782,960,754,101,3936,-16340,1020,-792,37,-42
3688,814,781,962,752,104,3880,-16392,1052,-790,86,-32
3691,806,779,963,752,105,3748,-16400,1160,-793,72,-20
3694,815,781,965,752,106,3892,-16360,1064,-775,67,-45
3697,814,781,967,752,107,3880,-16380,1080,-824,43,-21
3700,816,781,963,758,107,3852,-16428,1000,-787,63,-33
3703,816,779,963,758,107,3872,-16364,1008,-814,32,-15
3706,814,778,963,752,103,3876,-16428,1096,-798,8,-45
3709,815,771,962,752,102,3836,-16344,1048,-805,22,-18
3712,816,777,962,752,112,3880,-16296,1052,-784,15,-30
3715,816,779,960,754,110,3888,-16404,1156,-810,29,18
3718,813,778,965,752,109,3868,-16364,1136,-775,9,-24
3721,816,775,967,753,110,3864,-16276,1084,-791,26,-15
3724,801,773,960,753,109,3684,-16408,1280,-804,-10,-25
3727,816,784,964,752,105,3680,-16228,1280,-767,21,5
3730,814,775,969,753,112,3740,-16328,1176,-780,6,-10
3733,816,775,960,752,107,3732,-16248,1204,-764,6,-2
3736,815,777,967,752,105,3672,-16296,1244,-748,-107,26
3739,816,763,963,752,103,3660,-16288,948,-617,-491,136
3742,816,778,965,752,111,3788,-16364,1148,-586,-309,159
3745,813,774,959,753,105,3932,-16196,1292,-733,46,48
3748,812,773,978,752,106,4000,-16248,1108,-685,58,111
3751,814,773,965,750,103,3844,-16068,1164,-783,35,34
3754,815,773,965,750,103,3776,-16168,1332,-842,69,-45
3757,815,774,966,752,105,3812,-16196,1120,-818,78,-75
3760,811,777,966,752,107,3752,-16144,1248,-809,143,-60
3763,814,781,963,752,107,3856,-16192,1196,-820,171,-66
3766,813,782,961,752,111,3628,-16248,1132,-789,115,-18
3769,810,783,967,752,107,3816,-16144,1320,-791,48,-54
3772,808,784,961,755,106,3632,-16264,1044,-785,-21,-40
3775,816,787,963,752,108,3692,-16344,1160,-800,-89,-17
3778,813,783,965,752,107,3948,-16300,1128,-814,-136,-59
3781,811,778,964,752,109,3784,-16256,1072,-792,-105,-35
3784,816,784,961,752,107,3864,-16256,1148,-812,-65,-61
3787,815,780,965,752,111,3860,-16220,1300,-806,1,-53
3790,814,779,961,752,103,3872,-16260,1200,-809,70,-44
3793,813,775,960,753,102,3828,-16372,1324,-833,46,-63
3796,813,784,982,752,106,3764,-16308,1184,-844,37,-72
3799,810,762,974,754,104,3748,-16260,1288,-892,29,-80
3802,816,779,960,752,109,3932,-16276,1196,-891,12,-84
3805,814,777,960,753,103,3708,-16316,1048,-916,16,-86
3808,808,782,961,753,108,3876,-16200,1280,-913,-17,-66
3811,813,782,967,752,109,3816,-16344,1248,-957,-9,-83
3814,814,784,967,752,112,3820,-16188,1196,-972,-41,-85
3817,817,779,963,752,110,3720,-16344,1152,-966,7,-102
3820,815,777,967,752,106,3724,-16380,1248,-976,-34,-79
3823,816,780,966,752,107,3804,-16336,1188,-968,-15,-97
3826,815,778,966,754,108,3892,-16272,1336,-970,-7,-88
3829,806,777,963,753,106,3716,-16332,944,-976,18,-74
3832,814,780,967,752,107,3812,-16368,1140,-971,-5,-84
3835,815,778,967,754,105,3752,-16256,1124,-973,45,-97
3838,812,775,965,755,109,3784,-16220,1192,-982,29,-70
3841,814,784,976,752,107,3768,-16336,1252,-983,-17,-99
3844,816,780,969,755,107,3804,-16388,1264,-966,41,-81
3847,816,778,970,752,103,3736,-16336,988,-968,29,-71
3850,816,784,960,753,111,3760,-16360,1108,-957,25,-96
3853,816,779,962,755,103,3736,-16280,1236,-1007,43,-60
3856,817,779,969,751,107,3828,-16272,1216,-968,21,-88
3859,812,774,971,752,106,3836,-16268,1144,-997,29,-52
3862,811,778,965,752,110,3672,-16200,1288,-997,14,-72
3865,815,775,963,752,106,3864,-16184,980,-983,38,-74
3868,816,777,961,753,107,3872,-16280,1256,-984,-1,-73
3871,813,773,966,752,105,3904,-16316,1188,-1013,69,-79
3874,816,772,963,758,103,3848,-16160,976,-992,15,-51
3877,816,781,967,755,105,3784,-16272,1132,-1014,48,-73
3880,816,777,965,752,109,3824,-16228,1156,-999,14,-80
3883,814,775,962,753,106,3808,-16292,1168,-990,41,-78
3886,817,782,967,755,104,3844,-16332,1032,-999,12,-74
3889,816,779,963,755,103,3800,-16168,1244,-1005,8,-83
3892,813,783,967,754,107,3752,-16268,1168,-1001,-54,-78
3895,812,782,965,753,106,3712,-16292,1132,-1019,-46,-83
3898,816,785,961,767,104,3724,-16292,1072,-990,-77,-92
3901,813,784,963,752,103,3656,-16300,1204,-1023,-48,-81
3904,816,791,963,755,110,3732,-16260,1096,-1039,-39,-97
3907,815,798,961,752,103,3660,-16248,1160,-1001,-66,-94
3910,814,791,966,754,102,3816,-16216,1116,-1019,-23,-84
3913,814,784,963,752,103,3852,-16340,1124,-1021,-42,-111
3916,817,785,964,750,105,3916,-16204,1292,-1003,-6,-99
3919,813,784,963,752,103,3784,-16224,1200,-999,-22,-112
3922,811,783,960,751,106,3808,-16276,1136,-995,-5,-77
3925,815,783,963,751,106,3848,-16356,1144,-1001,8,-109
3928,816,795,965,752,110,3904,-16212,1072,-979,20,-77
3931,816,784,960,752,109,3780,-16236,1036,-1015,-6,-132
3934,815,786,961,768,102,3860,-16272,1052,-979,13,-103
3937,816,782,974,752,103,3852,-16264,1172,-998,-4,-118
3940,816,785,968,753,103,3876,-16360,1156,-994,-23,-116
3943,810,783,966,752,102,3816,-16272,1152,-1006,-19,-104
3946,815,783,966,752,103,3864,-16332,1152,-1023,-3,-100
3949,818,784,970,755,107,3856,-16292,1008,-1010,-11,-110
3952,816,785,961,752,112,3872,-16356,1076,-1017,-36,-97
3955,818,784,966,752,105,3824,-16200,1208,-1016,-32,-126
3958,835,784,967,751,108,3848,-16296,1236,-1033,-24,-103
3961,815,784,965,752,109,3792,-16328,1104,-1024,-32,-105
3964,815,784,965,753,107,3880,-16280,936,-997,-28,-98
3967,816,785,959,752,105,3780,-16256,1200,-1004,-32,-89
3970,816,784,967,752,103,3796,-16368,940,-1000,-32,-87
3973,816,789,965,751,103,3824,-16332,1160,-981,-24,-87
3976,817,797,964,754,107,3812,-16300,1144,-1003,-18,-62
3979,816,789,966,752,102,3820,-16448,1032,-990,-7,-60
3982,813,786,961,752,101,3916,-16368,940,-990,-33,-70
3985,813,781,963,753,104,3876,-16396,1208,-1005,-8,-71
3988,813,784,965,751,106,3888,-16276,956,-1000,-4,-60
3991,816,791,960,752,103,3860,-16332,976,-990,-5,-57
3994,813,784,963,770,105,3920,-16300,1088,-992,18,-52
3997,812,782,964,752,103,3836,-16272,1076,-1010,5,-68
4000,816,779,962,752,105,3908,-16300,1280,-993,22,-38
4003,815,781,968,752,109,3864,-16164,1192,-984,7,-40
4006,815,783,962,755,102,3916,-16196,1004,-975,22,-54
4009,811,777,966,752,106,3952,-16292,1244,-964,-7,-54
4012,814,777,969,749,107,3856,-16292,1060,-957,-11,-66
4015,815,778,969,750,105,3848,-16208,1060,-975,-27,-54
4018,811,775,965,752,109,3924,-16276,1112,-967,-38,-65
4021,816,782,967,752,102,3888,-16292,1092,-935,-40,-60
4024,812,778,963,752,102,3872,-16208,1040,-949,-38,-63
4027,813,780,967,755,108,3992,-16180,1160,-910,-26,-80
4030,811,782,961,752,105,3924,-16292,1052,-919,-28,-65
4033,811,780,965,753,105,3932,-16276,972,-911,-5,-70
4036,815,780,960,753,104,3844,-16276,1012,-905,-27,-49
4039,814,778,963,752,102,3888,-16324,1056,-912,-38,-77
4042,815,780,966,752,107,3880,-16332,1136,-909,-23,-64
4045,816,777,965,751,111,3836,-16204,1020,-910,-38,-80
4048,816,778,973,752,105,3880,-16352,1112,-922,-19,-34
4051,810,777,969,752,106,3848,-16436,872,-907,-34,-43
4054,813,774,961,751,102,3872,-16384,1048,-916,-33,-45
4057,814,782,961,754,103,3828,-16376,1048,-911,-23,-39
4060,811,787,966,752,107,3812,-16344,1096,-897,-33,-38
4063,814,783,963,752,107,3916,-16328,952,-925,-52,-28
4066,812,784,966,752,107,3932,-16348,1016,-908,-43,-35
4069,816,787,963,749,105,3900,-16340,1168,-901,-49,-24
4072,815,784,969,755,107,3884,-16216,1016,-901,-32,-31
4075,800,784,966,752,106,3976,-16320,1224,-894,-45,-30
4078,813,779,963,752,109,3960,-16480,1184,-892,-22,-29
4081,815,784,969,755,106,3900,-16272,1128,-895,-51,-24
4084,815,778,969,752,106,3956,-16284,1116,-873,-50,-49
4087,813,778,963,752,103,3892,-16376,1168,-907,-36,-29
4090,815,775,961,752,107,3848,-16420,1176,-895,-39,-42
4093,814,779,961,752,104,3848,-16280,1136,-900,-48,-27
4096,814,782,965,751,107,3884,-16344,1180,-897,-12,-48
4099,814,778,960,754,103,3848,-16260,1164,-874,24,-48
4102,813,777,961,752,105,3824,-16272,1156,-886,9,-30
4105,808,780,966,759,108,3892,-16276,1108,-881,14,-13
4108,815,784,964,752,107,3776,-16252,1100,-888,4,-22
4111,814,779,959,753,74,3860,-16240,1148,-882,26,-41
4114,816,779,963,752,111,3740,-16392,1140,-878,33,-25
4117,816,777,964,755,103,3728,-16328,1092,-862,32,-29
4120,809,774,964,759,105,3672,-16352,1064,-880,40,-33
4123,821,779,962,753,109,3824,-16356,1092,-849,36,-5
4126,812,769,969,754,102,3756,-16276,1216,-834,25,-27
4129,815,771,963,755,103,3788,-16332,1140,-827,33,1
4132,814,781,967,757,109,3832,-16340,1212,-848,25,-18
4135,810,777,960,755,103,3824,-16316,1080,-832,12,-2
4138,810,775,965,754,109,3800,-16276,1256,-842,25,-12
4141,811,773,966,753,107,3796,-16300,1060,-839,18,-17
4144,816,773,966,747,102,3828,-16284,940,-836,54,-34
4147,811,764,966,754,106,3824,-16308,1232,-849,30,-28
4150,815,779,963,754,106,3880,-16212,1020,-850,46,-10
4153,811,775,962,755,100,3988,-16308,1192,-831,24,-36
4156,815,762,959,753,106,3844,-16232,1144,-852,12,-11
4159,811,773,967,752,107,3816,-16292,1208,-851,39,-18
4162,815,775,969,752,103,3848,-16300,1052,-852,26,-30
4165,816,779,963,755,103,3816,-16236,1164,-849,45,-28
4168,810,784,966,751,107,3800,-16352,1228,-869,19,-26
4171,815,782,961,752,109,3828,-16360,1132,-866,36,-27
4174,816,784,961,753,105,3804,-16328,1148,-879,12,-34
4177,816,779,962,752,105,3772,-16316,1084,-860,35,-16
4180,811,782,965,749,103,3812,-16228,1192,-858,20,-30
4183,815,779,966,752,105,3764,-16224,1180,-866,-2,-43
4186,813,779,962,751,109,3820,-16264,1124,-850,26,-28
4189,816,781,967,752,106,3796,-16264,1144,-884,-7,-42
4192,815,784,960,753,103,3804,-16276,1128,-861,14,-32
4195,816,783,962,752,106,3884,-16260,1184,-868,17,-15
4198,815,783,962,752,109,3844,-16308,1132,-898,2,-44
4201,812,781,966,753,111,3888,-16256,1136,-881,-1,-20
4204,816,784,959,753,101,3732,-16216,1156,-890,-17,-37
4207,816,783,959,752,111,3800,-16344,1264,-892,8,-32
4210,816,781,963,750,103,3776,-16304,1140,-890,-21,-33
4213,811,778,960,752,106,3692,-16240,1056,-896,6,-34
4216,813,779,961,752,106,3808,-16292,1172,-911,-2,-41
4219,815,772,962,749,106,3820,-16280,1112,-896,-17,-25
4222,813,775,963,752,107,3760,-16228,1144,-909,2,-33
4225,813,781,967,752,110,3720,-16284,1280,-906,30,-26
4228,814,781,963,755,104,3792,-16264,1212,-885,10,-37
4231,811,781,961,752,106,3716,-16216,1236,-879,-1,-32
4234,812,783,969,755,109,3776,-16300,1024,-882,-3,-35
4237,811,784,965,749,108,3780,-16216,1164,-907,19,-38
4240,819,783,963,766,103,3824,-16276,1176,-903,0,-56
4243,814,779,966,752,105,3872,-16340,1124,-902,31,-53
4246,811,775,967,752,108,3820,-16312,1108,-895,25,-51
4249,808,775,964,752,106,3868,-16304,1016,-882,7,-35
4252,811,775,962,752,105,3900,-16252,1052,-894,1,-40
4255,811,784,961,752,107,3960,-16296,1112,-911,21,-28
4258,811,783,963,754,103,3836,-16200,1128,-904,1,-45
4261,812,785,961,752,103,3924,-16220,1108,-913,5,-56
4264,813,787,964,753,105,3876,-16380,1168,-909,-24,-48
4267,815,784,963,752,104,3848,-16344,1100,-912,-7,-55
4270,816,783,967,752,109,3804,-16300,1076,-914,-8,-44
4273,813,782,967,752,105,3752,-16320,1132,-943,-10,-40
4276,816,782,964,752,103,3900,-16256,1044,-906,-38,-54
4279,815,784,963,752,109,3756,-16248,1268,-940,-12,-38
4282,814,782,969,752,102,3868,-16224,1036,-945,-46,-46
4285,816,780,968,751,110,3868,-16312,1192,-945,-36,-57
4288,816,784,961,752,109,3904,-16232,1208,-961,-33,-45
4291,815,782,965,754,105,3828,-16348,1124,-953,-18,-64
4294,817,782,970,752,107,3816,-16172,1196,-979,-1,-48
4297,813,778,967,758,106,3792,-16264,1112,-961,-7,-43
4300,812,781,963,752,107,3764,-16240,1092,-988,-5,-49
4303,813,778,964,752,107,3776,-16236,1172,-973,-29,-55
4306,814,781,960,752,102,3828,-16272,1240,-983,-9,-51
4309,813,779,960,752,105,3768,-16348,1128,-978,-15,-48
4312,816,789,966,752,110,3656,-16316,1096,-964,-40,-41
4315,814,779,965,752,106,3772,-16228,1148,-963,-19,-44
4318,815,779,966,752,106,3788,-16228,1272,-956,-55,-54
4321,813,778,963,752,107,3708,-16300,1072,-975,-30,-43
4324,815,783,965,752,103,3808,-16144,1100,-960,-54,-36
4327,814,779,963,752,102,3792,-16256,1092,-934,-53,-26
4330,813,782,961,752,106,3752,-16296,1144,-894,-56,-32
4333,815,785,967,752,106,3792,-16228,1076,-933,-43,-27
4336,816,784,964,752,108,3732,-16412,1216,-933,-96,-47
4339,816,784,967,754,103,3764,-16296,1212,-919,-97,-43
4342,807,784,967,752,108,3752,-16448,1264,-899,-100,-18
4345,814,789,963,752,103,3740,-16248,1112,-864,-321,11
4348,813,784,969,751,106,3744,-16312,1152,-819,-336,83
4351,815,785,960,750,105,3952,-16208,1252,-890,-55,15
4354,814,781,963,752,110,4072,-16248,1108,-920,47,-12
4357,809,782,962,752,105,3880,-16320,1160,-931,81,-36
4360,816,782,960,753,101,3860,-16368,1076,-968,21,-53
4363,823,783,965,755,105,3772,-16312,1116,-944,-28,-56
4366,814,778,967,752,102,3836,-16372,1280,-925,38,-33
4369,812,779,961,753,105,3976,-16320,1000,-944,39,-51
4372,816,777,960,752,106,3848,-16384,1248,-924,12,-25
4375,816,781,965,752,106,3864,-16276,1224,-917,-40,-34
4378,813,775,967,752,108,3848,-16384,1216,-931,-75,-31
4381,816,777,961,755,110,3916,-16312,1076,-941,-82,-13
4384,815,782,960,751,107,3808,-16372,1164,-931,-96,-29
4387,815,778,965,754,102,3800,-16260,1176,-935,-91,-10
4390,815,783,962,753,109,3848,-16312,1224,-949,-85,18
4393,813,778,961,755,105,3908,-16236,1108,-935,-41,-24
4396,810,784,966,763,107,3860,-16236,1132,-936,-46,-4
4399,810,778,960,754,107,3876,-16276,1160,-950,-19,2
4402,814,774,971,753,107,3872,-16260,1140,-950,-37,3
4405,814,775,967,753,102,3868,-16236,1240,-946,-35,0
4408,816,770,963,752,99,3788,-16320,1144,-945,-38,-16
4411,813,781,965,759,109,3768,-16260,1212,-949,-14,11
4414,816,777,962,753,111,3800,-16284,1152,-954,-22,-10
4417,812,773,963,752,106,3832,-16268,1072,-972,9,2
4420,816,781,964,761,108,3884,-16196,1176,-965,2,2
4423,815,769,962,753,110,3816,-16332,1204,-975,-4,-10
4426,813,771,964,753,109,3812,-16236,1144,-951,4,-19
4429,814,773,966,750,107,3832,-16240,1088,-974,13,-9
4432,815,775,969,749,109,3844,-16264,1076,-954,-6,-27
4435,814,774,960,747,107,3780,-16336,1204,-973,6,2
4438,809,778,963,752,109,3848,-16216,1192,-980,-34,-17
4441,816,782,963,752,109,3784,-16268,1144,-987,-39,-4
4444,814,781,963,751,107,3852,-16316,1088,-968,-17,-12
4447,814,778,967,752,112,3828,-16280,1164,-982,-46,-3
4450,814,779,966,752,107,3860,-16224,1140,-975,1,-14
4453,815,782,963,754,106,3872,-16320,1124,-981,-35,-9
4456,815,783,965,752,109,3968,-16292,1100,-985,-37,16
4459,816,782,964,750,111,3796,-16328,1268,-993,-49,-11
4462,813,781,971,752,107,3840,-16372,1124,-989,-25,11
4465,813,779,967,761,103,3880,-16376,1244,-950,8,8
4468,816,784,966,755,107,3924,-16348,1116,-982,-3,11
4471,813,782,960,753,105,3900,-16348,1148,-933,6,-2
4474,814,783,962,752,109,3852,-16380,1224,-930,-1,14
4477,813,783,967,752,111,3932,-16424,1068,-927,35,12
4480,811,783,963,753,107,3960,-16292,1200,-911,46,-7
4483,807,779,963,757,108,3864,-16400,1184,-915,62,4
4486,814,783,959,753,111,3900,-16364,1212,-892,65,13
4489,810,787,967,753,110,3732,-16288,1100,-871,62,3
4492,807,784,962,754,108,3808,-16412,1148,-858,85,3
4495,811,784,963,756,109,3868,-16364,916,-848,92,-1
4498,814,774,969,753,110,3860,-16336,1184,-863,96,1
4501,814,783,960,754,106,3908,-16244,1020,-848,84,-3
4504,812,775,963,755,106,3732,-16308,1016,-849,98,12
4507,811,783,963,747,112,3740,-16220,1088,-838,79,-6
4510,808,784,961,755,111,3752,-16232,1140,-834,92,0
4513,813,795,966,752,108,3812,-16284,928,-827,125,-7
4516,809,784,961,755,111,3868,-16320,948,-826,101,-23
4519,811,781,963,752,109,3796,-16284,1092,-815,95,-11
4522,809,780,960,758,110,3728,-16292,1180,-818,83,-36
4525,807,782,960,752,108,3768,-16292,1116,-845,104,-53
4528,814,782,963,757,111,3692,-16220,968,-815,108,-44
4531,807,777,960,755,109,3716,-16220,1052,-824,104,-45
4534,811,777,960,753,107,3864,-16240,1044,-805,134,-38
4537,809,777,967,757,112,3876,-16340,1184,-807,119,-55
4540,809,777,963,752,111,3772,-16372,1092,-817,96,-67
4543,811,781,960,752,105,3724,-16216,1076,-832,107,-55
4546,809,779,961,755,103,3756,-16308,1016,-841,65,-94
4549,802,782,957,752,106,3800,-16344,1184,-826,99,-104
4552,813,785,960,754,107,3720,-16332,1020,-846,90,-98
4555,815,783,964,754,106,3676,-16368,1164,-857,110,-88
4558,805,787,966,754,106,3700,-16336,1132,-855,84,-103
4561,814,781,960,754,109,3688,-16404,1212,-853,88,-79
4564,815,782,963,756,107,3732,-16312,1216,-867,52,-81
4567,815,782,962,752,108,3828,-16376,1196,-879,93,-107
4570,813,805,963,758,110,3788,-16392,1148,-857,50,-64
4573,815,790,962,752,112,3512,-16424,1236,-866,-146,-73
4576,815,790,962,753,111,3612,-16588,1020,-678,-573,126
4579,813,782,966,754,110,3840,-16508,1300,-724,-236,87
4582,813,787,961,752,111,4056,-16284,1312,-775,60,38
4585,814,783,966,762,106,4152,-16232,1220,-827,82,33
4588,811,784,965,752,107,4048,-16368,1160,-901,94,-29
4591,810,780,966,752,109,3752,-16336,1064,-864,-26,25
4594,811,784,965,752,112,3836,-16200,1212,-919,126,-37
4597,812,778,958,757,109,3872,-16232,1276,-885,296,-44
4600,812,783,962,752,109,3908,-16284,1256,-910,289,-57
4603,811,775,966,753,109,3696,-16316,1312,-928,158,-28
4606,803,784,961,754,111,3760,-16276,1296,-944,142,-76
4609,822,774,960,756,108,3852,-16296,1352,-936,91,-39
4612,805,783,961,759,112,3824,-16280,1108,-926,34,-57
4615,804,777,962,753,112,3800,-16280,1272,-919,6,-72
4618,811,779,965,751,113,3808,-16380,1232,-945,-13,-81
4621,810,775,960,754,106,3812,-16352,1280,-926,24,-91
4624,811,782,960,754,110,3808,-16332,1188,-912,35,-83
4627,807,781,959,752,109,3796,-16488,1260,-918,39,-99
4630,801,778,961,753,111,3824,-16348,1180,-930,20,-88
4633,802,777,962,752,111,3796,-16280,1332,-951,17,-120
4636,812,784,965,749,111,3788,-16380,1228,-935,35,-110
4639,807,782,959,747,108,3792,-16324,1284,-952,18,-105
4642,810,785,967,743,107,3836,-16320,1276,-968,60,-109
4645,811,788,966,743,109,3800,-16304,1336,-982,87,-110
4648,811,784,965,741,112,3852,-16352,1084,-1019,87,-77
4651,825,784,960,736,109,3896,-16344,1200,-1030,84,-66
4654,809,779,967,737,112,3804,-16300,1208,-1030,44,-27
4657,811,779,961,738,107,3824,-16436,1340,-1041,68,-31
4660,805,781,960,739,110,3836,-16528,1176,-1040,18,15
4663,814,778,965,738,112,4056,-16392,1356,-1111,124,4
4666,810,768,958,739,110,3888,-16404,1252,-1110,-18,8
4669,814,771,960,741,111,4088,-16332,1404,-1133,15,-16
4672,805,767,961,742,103,4052,-16384,1356,-1179,20,-57
4675,805,767,960,743,108,4088,-16416,1360,-1051,36,26
4678,805,770,955,747,109,3972,-16464,1128,-1070,-35,13
4681,807,770,958,748,112,4104,-16404,1428,-1080,48,-37
4684,805,771,954,750,109,4108,-16412,1284,-1073,94,-35
4687,815,768,958,759,112,4228,-16368,968,-1116,86,-68
4690,807,778,955,751,112,4096,-16416,1208,-1094,204,-90
4693,803,767,955,753,110,4164,-16488,1040,-1083,280,-81
4696,799,762,961,752,110,4048,-16436,1060,-1088,309,-109
4699,809,757,960,752,112,3952,-16360,1136,-1118,285,-108
4702,810,752,961,752,112,3828,-16392,1068,-1097,199,-112
4705,811,741,955,753,113,3784,-16336,1196,-1085,173,-104
4708,805,740,962,752,111,3748,-16432,1104,-1081,264,-97
4711,806,734,971,752,111,3848,-16212,1160,-1079,206,-75
4714,810,737,960,752,112,3728,-16200,1076,-1091,55,-93
4717,803,730,964,749,112,3808,-16308,1064,-1091,157,-83
4720,804,727,960,752,112,3836,-16324,1176,-1109,173,-87
4723,812,720,963,751,111,3800,-16248,1168,-1137,14,-87
4726,807,721,962,752,112,3632,-16396,1072,-1069,-103,-61
4729,805,716,960,752,112,3776,-16428,1232,-1139,-123,-17
4732,807,718,961,755,111,3740,-16412,1196,-1210,-297,20
4735,807,707,959,756,112,3728,-16660,1012,-1139,-382,94
4738,801,707,961,752,110,4100,-16428,988,-1176,-344,121
4741,803,704,960,751,111,4128,-16116,1284,-1305,-5,24
4744,801,711,962,752,113,3924,-16284,1216,-1301,99,-7
4747,799,717,961,758,112,3808,-16208,1212,-1362,118,-66
4750,803,719,959,752,112,3872,-16256,1340,-1467,61,-148
4753,798,721,960,752,112,3952,-16240,1212,-1492,73,-74
4756,801,724,959,753,112,3916,-16108,1124,-1458,50,-5
4759,801,729,954,753,112,3852,-16192,1364,-1565,393,-165
4762,794,733,958,755,112,4036,-15912,1308,-1586,759,-277
4765,798,734,957,755,112,3920,-16044,1216,-1644,701,-351
4768,795,739,950,755,110,3684,-16112,1172,-1665,436,-349
4771,799,750,953,758,107,3624,-16176,1152,-1660,279,-387
4774,798,748,955,758,111,3756,-16184,1196,-1749,125,-418
4777,800,746,957,755,107,3568,-16240,1252,-1812,19,-478
4780,806,748,954,754,106,3512,-16444,1080,-1745,-102,-443
4783,805,751,957,761,110,3940,-16460,1108,-1600,-73,-285
4786,807,749,950,753,110,4196,-16344,824,-1676,37,-319
4789,804,752,956,758,112,4032,-16204,1104,-1665,279,-403
4792,807,757,955,761,112,3528,-16464,1048,-1615,91,-383
4795,816,762,960,754,110,3464,-16484,960,-1628,-439,-304
4798,811,759,959,762,109,3852,-16204,944,-1754,-444,-310
4801,812,758,960,757,111,3868,-16276,1208,-1677,-68,-291
4804,814,752,962,758,107,3796,-16208,1216,-1701,240,-289
4807,810,759,960,758,111,3892,-16384,1208,-1793,154,-278
4810,816,762,961,754,112,3812,-16612,952,-1693,62,-186
4813,814,771,969,763,112,3892,-16016,1224,-1843,166,-291
4816,817,773,961,755,111,3768,-16076,1152,-1818,320,-361
4819,816,770,965,755,109,3712,-16392,1124,-1761,423,-390
4822,816,766,975,755,110,3684,-15996,1208,-1878,427,-463
4825,816,770,960,752,112,3912,-16052,1264,-1883,634,-492
4828,817,783,959,751,112,3740,-16212,944,-1876,455,-500
4831,817,782,955,747,109,3660,-16300,1272,-2004,778,-611
4834,816,784,960,750,111,3668,-16496,944,-1863,506,-487
4837,815,784,956,751,113,3940,-16448,1072,-1726,411,-391
4840,815,796,965,745,112,3776,-15972,1112,-1824,658,-584
4843,814,794,971,738,111,3276,-16264,760,-1805,203,-649
4846,820,799,966,739,109,3560,-16112,1184,-1598,566,-624
4849,822,807,974,735,107,3672,-16112,436,-1734,324,-683
4852,823,802,972,738,109,3748,-16012,1228,-1830,717,-842
4855,816,807,971,734,112,3528,-16136,992,-1777,511,-853
4858,816,804,967,731,111,3564,-16520,784,-1681,193,-708
4861,816,806,970,737,112,3624,-16304,596,-1746,11,-681
4864,816,805,965,741,109,3456,-16064,1236,-1654,328,-711
4867,817,809,960,741,110,3176,-16276,916,-1717,103,-794
4870,812,815,963,740,110,3532,-16264,1100,-1510,397,-737
4873,803,819,965,741,112,3620,-16300,812,-1609,585,-780
4876,811,816,961,739,114,3712,-16244,988,-1666,765,-799
4879,819,816,964,741,113,3400,-16272,984,-1820,475,-797
4882,820,814,962,743,112,3724,-16168,1284,-2040,429,-934
4885,831,817,965,739,115,3704,-16332,1252,-1889,818,-860
4888,830,816,960,742,112,3660,-16400,860,-1991,807,-876
4891,832,817,960,743,115,3736,-16408,1176,-2056,884,-870
4894,823,820,951,738,116,3620,-16408,1196,-2132,566,-841
4897,829,823,953,744,115,3420,-16336,1024,-2285,211,-911
4900,832,826,960,740,115,3848,-16448,1148,-2194,311,-819
4903,836,833,955,742,117,3884,-16480,900,-2176,254,-786
4906,834,834,958,749,116,3864,-16584,1028,-2180,319,-759
4909,835,844,959,750,113,4292,-16744,632,-2035,19,-602
4912,839,834,965,751,113,4124,-15924,700,-2198,281,-781
4915,839,823,962,748,112,3872,-16012,920,-2157,558,-884
4918,837,816,962,748,113,3868,-16308,876,-2043,624,-862
4921,832,821,961,751,113,3884,-16176,892,-2132,695,-905
4924,838,812,967,753,114,3936,-16104,760,-2139,935,-914
4927,833,806,959,751,112,3964,-16108,724,-2333,1059,-985
4930,838,800,957,752,114,3992,-16296,820,-2337,1259,-950
4933,832,799,966,750,117,4076,-16652,928,-2196,1379,-731
4936,833,793,961,755,116,3868,-15964,680,-2212,1544,-840
4939,837,795,962,760,114,3684,-16244,844,-2237,1460,-906
4942,832,796,953,752,112,3208,-16224,948,-2333,1329,-916
4945,832,796,965,756,113,3656,-16156,484,-2329,1038,-1004
4948,832,787,959,755,114,3940,-16516,644,-2493,722,-1044
4951,832,785,957,752,112,3988,-16596,912,-2545,942,-1022
4954,832,784,956,754,112,4532,-15948,780,-2595,1065,-1043
4957,829,783,970,750,119,3820,-15996,984,-2823,768,-1216
4960,829,784,957,745,115,3724,-16156,1056,-2799,346,-1192
4963,827,784,955,749,114,3932,-16296,440,-2876,-414,-1266
4966,825,788,959,743,115,4452,-16024,1112,-2988,234,-1334
4969,832,794,957,739,117,4336,-15832,540,-3060,383,-1384
4972,828,788,958,739,115,4420,-16024,732,-3161,588,-1472
4975,827,797,957,738,115,4408,-16272,668,-3083,627,-1393
4978,829,791,969,739,113,4456,-16272,572,-3095,294,-1399
4981,854,798,961,741,113,4304,-16064,312,-3089,178,-1489
4984,832,793,960,739,118,4076,-16144,748,-3012,719,-1518
4987,816,800,954,748,115,3896,-16124,292,-3107,-33,-1665
4990,822,804,967,742,114,3768,-16280,492,-2947,-405,-1701
4993,817,795,959,743,115,3884,-16108,92,-3213,-807,-1908
4996,823,801,959,742,115,4108,-16456,312,-3302,-806,-1980
4999,828,795,955,739,113,4548,-16612,316,-3115,-26,-1896
5002,831,793,957,746,113,4864,-16896,352,-3123,700,-1838
5005,832,795,955,752,112,4272,-16996,-56,-3025,446,-1734
5008,833,793,958,750,112,4344,-16524,308,-3062,734,-1794
5011,832,797,957,739,114,4204,-16532,164,-3029,482,-1821
5014,823,797,961,741,114,5816,-16528,-80,-3260,1209,-2121
5017,830,799,962,739,113,2252,-17828,376,-2406,-188,-1336
5020,831,805,970,743,114,4408,-16476,576,-3006,55,-1618
5023,826,801,961,740,116,4524,-16492,396,-3182,330,-1849
5026,823,804,970,749,112,4048,-16840,252,-2982,-183,-1654
5029,832,812,967,747,111,4704,-16792,300,-3161,16,-1679
5032,832,809,957,749,114,4520,-17036,512,-3237,-47,-1577
5035,845,801,955,740,114,4424,-16700,368,-2945,-103,-1470
5038,853,805,963,748,118,4660,-16088,568,-3169,531,-1659
5041,862,798,964,747,119,4688,-16348,444,-3139,773,-1733
5044,865,797,966,752,122,4248,-16480,176,-3110,383,-1742
5047,869,795,963,756,124,4256,-16568,512,-3071,294,-1732
5050,880,791,961,752,116,4672,-16344,564,-2991,484,-1731
5053,886,789,961,751,118,4672,-16372,564,-2959,670,-1806
5056,895,787,964,757,126,4752,-16412,364,-2792,845,-1816
5059,912,786,963,758,121,4820,-16260,284,-2736,797,-1865
5062,927,771,969,757,118,4688,-16460,148,-2664,751,-1854
5065,932,774,967,763,114,4636,-16344,-16,-2565,375,-1764
5068,931,767,973,759,118,4144,-16496,172,-2356,64,-1536
5071,939,767,977,767,125,3768,-16412,664,-2516,-679,-1677
5074,938,762,986,766,127,5084,-16356,504,-2154,-33,-1509
5077,941,765,982,767,124,5328,-15972,-68,-2156,663,-1528
5080,945,772,984,778,121,5056,-15584,184,-2467,790,-1766
5083,944,774,982,769,119,5064,-15900,640,-2441,1433,-1846
5086,947,780,978,768,119,4868,-16536,208,-2135,992,-1616
5089,944,784,970,767,123,5004,-15528,592,-2277,1378,-1792
5092,929,783,976,761,128,4896,-15592,352,-2332,1629,-1910
5095,910,789,976,761,125,5916,-15920,152,-3082,1615,-2040
5098,901,799,977,763,127,4004,-17000,-944,-2686,636,-1850
5101,906,807,981,766,135,4272,-16636,-24,-2935,1073,-2242
5104,913,809,977,774,128,5592,-17244,360,-2563,1602,-1843
5107,939,814,981,781,134,4828,-16224,-92,-2734,1474,-1866
5110,967,824,981,775,142,4812,-16280,332,-2819,2016,-2072
5113,1008,833,989,779,161,4460,-16616,-172,-2931,1364,-2170
5116,1023,836,989,778,165,4268,-16716,-108,-2889,436,-2163
5119,1019,837,989,773,174,4232,-16860,220,-2895,383,-2220
5122,993,835,983,768,176,5024,-17000,-36,-2825,851,-1994
5125,971,832,987,761,176,5332,-17788,260,-2621,128,-1740
5128,969,848,990,756,169,4616,-15952,-292,-2804,-144,-1907
5131,959,829,983,766,162,4668,-15636,608,-3323,-64,-2214
5134,932,833,978,764,171,4644,-16448,228,-3284,285,-2218
5137,910,828,975,769,166,4080,-17164,244,-3279,-333,-2136
5140,873,829,969,769,170,4304,-16208,572,-3114,-567,-2101
5143,853,830,970,775,161,4900,-15968,412,-3357,261,-2395
5146,842,832,966,779,168,5252,-16468,-12,-3254,1002,-2506
5149,830,832,965,783,172,4800,-16412,80,-3042,880,-2557
5152,826,829,962,813,172,4244,-15944,-12,-3012,774,-2703
5155,826,822,959,797,167,4516,-16188,-256,-3117,1339,-2930
5158,816,814,958,805,169,4460,-16388,-328,-3055,1168,-2997
5161,816,804,945,815,161,4588,-16544,156,-2978,1016,-2895
5164,805,799,946,819,162,4552,-16204,-496,-3253,497,-3059
5167,811,801,949,818,176,4512,-16312,-364,-3261,148,-3150
5170,804,800,942,832,176,4708,-16084,-288,-3319,885,-3153
5173,816,786,938,816,173,4392,-17108,-1060,-3078,931,-3142
5176,823,781,941,811,176,4592,-15788,-148,-3327,751,-3318
5179,837,770,935,815,173,3940,-17396,-1264,-2977,701,-3140
5182,862,759,929,816,171,4060,-16268,-380,-3119,719,-3085
5185,881,749,927,818,173,3496,-15920,-536,-3321,944,-3194
5188,901,738,928,815,171,3172,-16824,-912,-3347,1505,-3193
5191,915,723,935,825,163,3092,-17204,-912,-3410,703,-3277
5194,937,720,941,829,166,2092,-16032,-520,-3553,393,-3356
5197,946,717,937,835,185,1864,-16344,-764,-3780,327,-3715
5200,953,716,944,841,187,1460,-16720,-148,-3301,-356,-3639
5203,932,712,947,846,190,1584,-15196,-544,-3609,-281,-4097
5206,912,716,951,832,190,1656,-16956,-312,-3313,-359,-4303
5209,894,720,958,848,190,1424,-15476,-296,-3160,-918,-4423
5212,884,720,960,847,191,1824,-16976,-1248,-2762,-1009,-4447
5215,901,739,956,849,189,2260,-15552,-600,-3160,-661,-4641
5218,920,748,947,845,209,2456,-16128,-1684,-3111,-650,-4743
5221,944,767,943,841,215,3080,-15312,-2688,-3566,-609,-4789
5224,951,779,935,838,236,2612,-15860,-1612,-3966,131,-5106
5227,951,789,912,835,269,2212,-15644,-2564,-4132,-297,-5271
5230,941,793,912,821,258,1584,-15948,-1944,-4352,-32,-5631
5233,951,807,905,823,263,2564,-15900,-3336,-4485,-334,-5916
5236,990,819,887,829,275,2328,-15856,-1972,-4900,-389,-6414
5239,1041,815,909,819,274,1620,-16600,-2292,-4907,-688,-6504
5242,1075,813,914,826,272,2188,-16924,-1504,-4808,-325,-6681
5245,1078,803,927,822,272,2240,-16324,-1788,-5048,-377,-7055
5248,1090,782,942,816,263,2312,-16784,-2156,-4950,-40,-7172
5251,1088,778,955,816,277,2724,-16516,-1480,-5317,-185,-7596
5254,1079,783,965,816,274,2632,-16652,-1800,-5480,-223,-7963
5257,1071,779,979,811,278,2296,-16160,-2032,-5923,-89,-8352
5260,1053,779,977,787,277,2484,-16200,-1808,-6252,19,-8800
5263,1040,789,999,786,274,1976,-16540,-2396,-6505,108,-9024
5266,1042,794,1057,779,276,1352,-17900,-2040,-6210,-297,-9071
5269,1035,784,1011,766,287,1228,-18316,-3340,-6085,1653,-9460
5272,997,806,1003,752,292,3020,-17060,-3472,-6094,-222,-9517
5275,960,816,1040,750,297,1620,-17632,-4496,-6226,-1535,-9660
5278,960,835,1007,752,309,1844,-17832,-3680,-5367,-2433,-9197
5281,987,848,1005,759,310,2504,-18316,-3552,-5486,-2197,-9694
5284,1019,874,995,762,318,2744,-17884,-2960,-5632,-2576,-10051
5287,1047,890,996,758,334,2272,-18980,-3644,-5750,-3902,-10128
5290,1069,902,1021,759,341,2744,-18340,-2132,-5838,-3918,-10206
5293,1072,915,1051,767,337,2944,-17996,-1776,-6344,-2486,-10487
5296,1039,931,1056,767,333,3436,-19104,-1340,-6700,-1205,-10591
5299,990,944,1074,764,338,3212,-19192,-1148,-6913,-1233,-10512
5302,976,969,1093,764,354,2412,-18476,-1064,-7421,-2358,-10342
5305,1008,976,1105,772,373,2548,-19352,-1192,-7376,-2956,-9939
5308,1047,981,1121,771,403,3464,-17240,-340,-7758,-2471,-9905
5311,1058,971,1119,758,420,3664,-19708,-1576,-7177,-2651,-9642
5314,1048,957,1120,752,446,5008,-18328,-964,-7093,-2630,-9501
5317,1072,953,1122,737,439,5064,-17436,-1644,-6809,-3165,-9592
5320,1101,946,1110,723,480,4744,-17196,-2628,-7060,-3989,-9660
5323,1132,960,1133,720,497,5228,-16852,-1952,-7619,-3585,-10058
5326,1129,977,1136,714,493,6012,-18876,-1988,-6825,-2951,-9618
5329,1131,1008,1150,710,525,6784,-17796,-1240,-6711,-1674,-9169
5332,1104,1036,1168,722,511,6484,-17288,-2300,-6592,-1319,-9160
5335,1072,1055,1153,719,561,6988,-16628,-1728,-6779,-1820,-9109
5338,1008,1070,1149,720,582,6588,-18596,-2324,-7201,-2399,-9471
5341,957,1065,1153,723,661,7716,-18216,-1776,-7348,-2819,-9326
5344,934,1065,1136,704,640,8236,-17860,-1512,-7439,-1324,-9182
5347,893,1063,1133,707,663,8276,-16836,-456,-7160,-967,-9295
5350,821,1082,1119,715,707,8444,-18020,-868,-6041,389,-8540
5353,784,1066,1104,721,707,6348,-17140,-2564,-7103,-2811,-8966
5356,763,1061,1072,726,771,7684,-17108,-936,-6848,-1971,-8754
5359,735,1040,1055,742,767,7740,-16936,-1200,-5298,-1616,-8479
5362,754,1023,1019,742,753,8244,-16196,-2800,-5869,-1101,-8794
5365,763,982,986,734,786,8772,-16040,-2088,-5804,-947,-8599
5368,768,923,979,735,791,7132,-16576,-2196,-5377,-917,-8516
5371,784,854,965,739,777,6920,-16184,-1456,-6059,-1192,-8618
5374,828,800,960,756,803,8192,-17556,-1624,-5507,-43,-8096
5377,849,752,974,751,775,7616,-16412,-2796,-5534,-298,-8231
5380,848,725,981,752,751,7288,-16920,-2680,-5252,-910,-8297
5383,854,737,977,742,736,6644,-17176,-3844,-5474,-2472,-8243
5386,847,752,960,746,733,8452,-15880,-3408,-5986,-1833,-8005
5389,830,758,931,787,752,8756,-16848,-3164,-6137,-761,-7818
5392,814,783,922,768,734,6276,-16896,-3848,-5649,-569,-7842
5395,780,829,927,752,751,6796,-16348,-2456,-4855,-151,-7629
5398,753,844,944,737,781,7040,-15712,-4208,-5388,-742,-7715
5401,730,848,950,720,823,7300,-16652,-4564,-4985,-779,-7511
5404,713,819,965,724,835,7232,-15692,-4124,-5005,-873,-7549
5407,688,782,973,757,833,7024,-14968,-3436,-4767,-650,-7413
5410,664,702,982,757,811,6808,-14628,-3432,-4501,-954,-7357
5413,655,621,978,747,784,6736,-14292,-3108,-4413,-731,-7031
5416,642,545,976,753,816,6948,-14288,-3092,-4315,-131,-6814
5419,657,511,961,764,832,7172,-14164,-2976,-4330,-61,-6700
5422,681,499,950,753,817,7124,-14708,-3152,-4385,-636,-6727
5425,674,496,961,762,796,7424,-14660,-2344,-4408,-705,-6572
5428,651,494,982,757,771,7360,-14800,-2076,-4421,-931,-6384
5431,643,497,1015,751,763,8104,-15116,-1988,-4278,-408,-6283
5434,640,496,1062,755,738,9100,-15140,-1876,-4075,636,-5886
5437,624,494,1083,749,711,9368,-15404,-2404,-3892,999,-5765
5440,594,499,1095,746,755,9248,-15188,-2656,-4315,781,-5669
5443,559,510,1101,672,752,9264,-15748,-2968,-3984,189,-5762
5446,528,511,1105,695,763,10392,-15372,-2504,-3956,670,-5791
5449,496,505,1103,692,774,11236,-15004,-2068,-3348,1519,-5864
5452,481,496,1098,715,741,11672,-15808,-1916,-2776,2464,-5829
5455,474,509,1098,730,725,12080,-14452,-4116,-2997,4640,-5239
5458,464,528,1091,708,734,10768,-14768,-3860,-2741,5173,-4652
5461,464,538,1083,778,720,9836,-14352,-2920,-2375,5201,-4416
5464,464,533,1079,775,707,9948,-14104,-2960,-2242,5072,-4332
5746,855,523,849,746,1205,12620,-10968,-4160,-653,-1349,-9358
5750,887,511,863,746,1212,15772,-11116,-1160,-554,3169,-9449
5753,880,511,858,720,1151,14944,-11452,-1608,202,3349,-9129
5756,859,507,849,720,1107,15344,-10828,-2528,-272,3923,-9094
5759,855,511,848,717,1093,14820,-11888,-1492,299,4427,-8800
5762,854,511,837,719,1069,14532,-11472,-1880,239,4011,-8573
5765,851,511,832,730,1057,14484,-11404,-1868,108,3555,-8398
5768,848,511,828,736,1020,14320,-10904,-1740,-177,3865,-8520
5771,848,530,823,752,987,14520,-11032,-2124,-439,4046,-8689
5774,853,537,819,761,963,14648,-11068,-2208,-566,3749,-8673
5777,861,542,813,767,935,14632,-10440,-1956,-624,4153,-8633
5780,874,546,816,773,903,14748,-11020,-2032,-457,4481,-8429
5783,886,545,816,757,913,14548,-10736,-1728,-405,4101,-8193
5786,900,543,818,763,893,14644,-10532,-1944,-480,4221,-8191
5789,900,543,815,752,876,14476,-10220,-1324,-301,4248,-8200
5792,907,546,818,751,839,14160,-9808,-1684,-511,3580,-8383
5795,910,539,816,758,821,14472,-10020,-1588,-443,3546,-8468
5798,907,539,813,770,795,15052,-10072,-1888,-280,3541,-8512
5801,910,535,810,791,773,15032,-10040,-1676,-147,3376,-8600
5804,905,541,810,793,751,15016,-9452,-1424,-136,3291,-8749
5807,899,542,806,797,725,14824,-9548,-1920,-275,3069,-8912
5810,905,549,801,791,713,15312,-9860,-1160,133,2766,-8803
5813,899,549,798,789,692,15916,-9432,-948,196,3596,-8836
5816,912,549,799,784,679,15676,-8856,-1276,12,3747,-9036
5819,922,560,807,784,668,15032,-9884,-1624,391,2930,-9045
5822,930,569,815,767,656,15052,-9220,-1928,401,2650,-9094
5825,941,587,813,761,640,15372,-9600,-1548,457,3519,-9156
5828,939,608,814,767,649,15452,-9928,-1264,592,3499,-9031
5831,946,626,817,769,635,15148,-9320,-1956,352,3033,-9072
5834,954,640,818,765,627,15028,-9328,-1132,440,3252,-8929
5837,967,655,816,784,637,14616,-9808,-1092,589,3263,-8837
5840,965,673,816,777,623,14388,-9192,-1800,277,3692,-8955
5843,960,671,816,768,610,13768,-9196,-1588,116,3058,-9250
5846,957,690,822,768,611,13884,-8948,-1700,33,3081,-9227
5849,959,691,827,768,624,13644,-9040,-1276,32,3951,-9215
5852,953,691,822,784,617,13900,-8812,-1044,108,4932,-9163
5855,954,688,818,790,644,13544,-8676,-1136,209,5395,-9055
5858,959,688,816,794,637,13012,-9128,-1792,209,4840,-9032
5861,976,675,816,810,624,12760,-8196,-1768,197,4645,-9117
5864,955,669,816,801,624,12288,-9168,-1912,699,4203,-9063
5867,946,661,816,797,629,12808,-8260,-2104,731,4230,-8780
5870,948,643,827,803,618,14368,-8672,-40,1411,8442,-8577
5873,944,629,817,790,627,14008,-8116,-616,1246,7551,-8758
5876,938,619,817,793,635,11084,-8500,-2880,365,2290,-8983
5879,932,611,816,780,637,11620,-9144,-2056,690,615,-8730
5882,944,606,810,784,628,12588,-8744,-700,1180,1617,-8400
5885,960,608,811,786,626,13824,-9456,-532,1462,3102,-8262
5888,971,624,812,775,619,13976,-8404,-588,1547,3324,-8157
5891,978,638,816,772,629,13764,-9376,-1296,2015,3681,-7837
5894,992,647,814,798,640,13456,-8836,-788,2024,3765,-7777
5897,995,656,816,789,639,14072,-9244,-1096,2134,4594,-7828
5900,1002,656,820,784,629,14536,-9772,-584,2522,4576,-7716
5903,1003,657,820,765,620,14100,-8564,-1536,1688,4138,-7930
5906,995,656,825,794,608,14080,-9892,-1872,1639,3212,-8133
5909,991,657,836,788,613,14636,-9384,-1400,1886,3552,-7924
5912,994,663,846,810,603,14324,-8600,-1744,1695,3520,-7997
5915,986,659,845,825,608,14828,-8904,-952,1513,4001,-8144
5918,990,653,844,835,599,13980,-8304,-1352,1324,2070,-8197
5921,981,653,847,832,594,13916,-8592,-616,1209,1458,-8183
5924,981,643,848,880,595,13552,-8512,-284,1460,41,-8040
5927,973,643,845,862,597,14016,-7944,-692,1330,-17,-7875
5930,976,631,841,857,603,13452,-7676,-132,1306,257,-8048
5933,971,624,834,874,609,13720,-8044,-1136,1510,806,-7876
5936,965,624,831,912,607,13708,-7244,-84,1728,1129,-7749
5939,965,629,827,915,613,13628,-7092,-1044,2249,2575,-7304
5942,976,624,829,928,626,11748,-6428,-3128,1214,-3180,-7582
5945,976,636,830,944,646,12648,-6824,-1084,1528,-2644,-7823
5948,973,626,841,925,656,13684,-6500,480,1869,-346,-7752
5951,976,615,835,926,650,13748,-6184,36,1810,486,-7976
5954,977,615,838,942,645,13508,-6244,-608,2090,597,-7808
5957,979,598,838,931,650,13296,-6252,172,2019,1112,-7997
5960,973,592,838,921,647,13508,-6128,-764,2111,514,-7898
5963,960,592,832,909,638,13576,-6396,-1112,2073,789,-7982
5966,943,593,838,909,640,13972,-6132,-776,1992,1445,-8112
5969,935,582,838,915,631,14080,-5852,-700,1797,1807,-8204
5972,931,585,839,919,624,14040,-6228,-1200,1747,1585,-8265
5975,930,576,839,929,621,13852,-6180,-160,1596,1101,-8326
5978,927,579,839,919,624,14060,-6448,-696,2008,283,-7824
5981,912,574,842,925,635,13460,-5992,-676,1603,1011,-8050
5984,915,575,846,921,629,14960,-6172,864,1302,2882,-8233
5987,932,580,838,906,621,14248,-6228,-936,1162,2296,-8245
5990,925,585,842,883,618,13772,-5936,-940,754,1260,-8410
5993,925,598,839,874,617,13456,-5672,-236,673,1039,-8388
5996,922,613,844,853,618,13268,-6136,-640,754,-301,-8146
5999,919,624,847,863,622,13404,-6260,-684,817,-712,-8015
6002,912,629,849,868,611,14056,-5316,252,268,67,-8200
6005,911,624,855,861,613,13840,-5568,424,434,847,-8006
6008,913,629,865,858,607,13832,-6088,-344,552,663,-7749
6011,941,637,870,868,616,14136,-5516,292,340,1068,-7710
6014,946,620,873,818,625,14084,-5144,508,163,2220,-7809
6017,960,627,877,832,630,14372,-5916,-216,753,3118,-7440
6020,946,624,887,832,629,13968,-5320,-416,318,2476,-7518
6023,942,641,917,828,630,14064,-5408,-536,252,2449,-7452
6026,941,646,922,832,633,14188,-5628,-96,393,2248,-7289
6029,944,641,933,828,636,14380,-5468,-708,95,2280,-7351
6032,959,634,935,835,626,14704,-5304,-136,242,2796,-7248
6035,961,655,928,854,625,14548,-5452,-76,74,2374,-7173
6038,969,653,938,831,629,14852,-5048,-72,-347,3171,-7490
6041,976,647,944,819,651,14308,-5444,-108,31,2896,-7148
6044,976,651,942,823,656,13688,-5060,-216,-235,1430,-6976
6047,976,637,935,823,656,14032,-5644,160,-148,1478,-6659
6050,977,635,939,829,650,14548,-5336,644,-338,1344,-6526
6053,978,644,930,849,656,14416,-4952,988,-446,1551,-6375
6056,972,640,933,869,644,14176,-4608,860,-556,2251,-6355
6059,967,641,935,882,642,14692,-5008,792,-677,3006,-6216
6062,972,656,942,885,641,14504,-5020,728,-978,2657,-6164
6065,967,649,944,879,654,13788,-4980,-288,-1200,1972,-6126
6068,960,641,944,880,655,14056,-4880,764,-1133,2254,-5929
6071,971,651,940,867,654,13940,-4688,448,-1297,2334,-6031
6074,974,624,939,878,656,13708,-4256,872,-1500,2512,-6206
6077,973,623,943,870,656,14032,-4900,-152,-1488,2713,-6085
6080,971,622,942,862,653,14120,-5056,-212,-1374,1882,-5943
6083,982,624,945,849,658,13940,-4720,448,-1312,1545,-5962
6086,983,614,955,838,672,14056,-4928,220,-1061,2154,-5890
6089,976,577,945,845,671,13856,-5088,-8,-936,2467,-5951
6092,974,609,944,841,668,13032,-4660,44,-954,2013,-6104
6095,981,607,937,848,670,13136,-4428,68,-664,2885,-6047
6098,991,623,931,848,674,14004,-5132,-364,-578,3141,-5887
6101,1005,634,933,864,664,13248,-5468,44,-268,2673,-5682
6104,1003,647,937,867,672,13872,-5148,48,-165,2635,-5543
6107,1007,650,954,876,673,14180,-5484,396,-180,2930,-5412
6110,1004,657,971,881,670,13736,-4856,288,-475,2775,-5526
6113,1001,653,990,862,670,14200,-5096,-244,-869,2596,-5516
6116,994,655,1006,850,670,14300,-5600,360,-792,2563,-5253
6119,979,649,1015,838,661,14240,-4972,-12,-1252,1987,-5385
6122,977,653,1018,847,657,14488,-4508,444,-1255,2172,-5348
6125,981,661,1017,848,657,14812,-5212,208,-1243,2010,-5119
6128,992,659,1021,848,661,14776,-5064,772,-1280,1794,-5003
6131,1003,669,1031,846,663,15368,-4756,336,-1307,2001,-4794
6134,1005,677,1040,847,665,15228,-4312,628,-1346,2097,-4699
6137,1008,688,1045,850,667,14992,-5044,264,-1286,2104,-4627
6140,995,688,1059,855,661,14832,-4944,144,-1420,2120,-4623
6143,979,688,1062,861,661,14916,-4696,260,-1376,1940,-4580
6146,983,682,1068,870,657,15008,-4696,-8,-1472,2181,-4529
6149,995,672,1081,876,662,15016,-5028,-236,-1317,2135,-4461
6152,1023,663,1089,869,662,14536,-4612,20,-1295,2603,-4511
6155,1044,662,1095,870,661,14604,-4724,-484,-822,2746,-4473
6158,1040,664,1097,890,662,14944,-4708,-448,-342,2793,-4272
6161,1035,670,1091,905,665,14736,-4976,112,-114,2817,-4230
6164,992,659,1089,925,667,15012,-4700,636,105,3124,-4217
6167,993,652,1088,935,665,14912,-4568,460,77,2987,-4246
6170,1003,649,1078,933,660,15212,-4572,336,-172,2544,-4406
6173,999,639,1073,918,669,15256,-4588,644,-522,2358,-4510
6176,1013,624,1076,922,670,15320,-4628,1272,-312,1962,-4248
6179,1008,618,1088,928,671,15472,-4268,1044,-632,1669,-4110
6182,991,625,1111,913,672,15856,-4440,704,-527,1285,-3946
6185,976,616,1131,900,665,15896,-4408,892,-803,1018,-3876
6188,954,609,1149,881,666,16248,-4492,1456,-860,1163,-3891
6191,953,619,1173,867,675,16436,-4148,1564,-854,1150,-3785
6194,945,624,1139,866,670,16288,-4116,1540,-1099,1301,-3914
6197,944,619,1127,873,680,16308,-4276,1780,-1090,1384,-3790
6200,943,631,1104,880,679,16504,-4160,1668,-1059,1688,-3735
6203,938,631,1085,883,678,16504,-4004,1568,-1104,1942,-3760
6206,944,635,1069,891,679,16212,-3884,960,-885,1896,-3681
6209,942,642,1057,885,677,16428,-4020,988,-901,1811,-3669
6212,947,656,1044,883,674,15860,-3944,1092,-786,1522,-3563
6215,970,659,1040,874,682,16088,-3672,1340,-841,1441,-3668
6218,977,674,1023,859,689,16268,-3724,1152,-763,1456,-3616
6221,1008,686,1013,862,693,16396,-3648,1284,-807,1748,-3723
6224,997,688,1008,880,695,15936,-3960,1308,-618,1500,-3822
6227,986,701,1018,899,693,16040,-3896,1004,-166,779,-3522
6230,976,689,1008,895,688,16436,-3548,1856,-634,983,-3625
6233,971,713,1009,881,688,16496,-3908,1844,-525,1326,-3661
6236,959,677,1008,871,694,16520,-3736,1492,-610,999,-3684
6239,960,715,1015,851,690,16260,-3960,1548,-452,509,-3545
6242,964,720,1012,835,695,16308,-4052,1608,-543,219,-3493
6245,961,698,1004,829,688,16980,-3532,1624,-627,566,-3377
6248,969,697,991,816,701,16780,-3824,1456,-444,742,-3475
6251,982,705,977,827,702,17200,-3456,1212,-446,915,-3447
6254,979,688,974,863,698,16872,-3524,940,-475,957,-3345
6257,976,689,981,865,699,17336,-3288,1096,-514,1404,-3309
6260,976,698,967,866,703,17064,-3416,1140,-650,1803,-3317
6263,963,704,970,857,703,16388,-3480,1120,-539,1893,-3366
6266,962,714,976,851,703,16256,-3764,1148,-196,1763,-3269
6269,961,700,970,851,702,16728,-3816,888,-260,1659,-3197
6272,967,697,971,860,698,16664,-3880,1204,-259,1843,-3199
6275,979,691,961,871,698,16784,-3812,884,84,1870,-3242
6278,977,695,960,865,701,16156,-4112,600,398,1039,-3115
6281,965,695,966,846,707,16312,-3552,996,344,1295,-3158
6284,960,701,970,835,708,16656,-3320,1160,229,1490,-3270
6287,960,699,967,828,706,15792,-3784,1068,170,987,-3216
6290,970,704,967,835,704,15972,-3564,1576,-59,1192,-3260
6293,979,704,958,847,706,15888,-3288,1900,130,1401,-3274
6296,982,713,944,848,702,15432,-3616,1756,-2,696,-3299
6299,989,685,944,846,704,15880,-3544,1716,633,687,-3352
6302,994,701,941,832,709,16140,-3740,1460,677,637,-3161
6305,995,677,939,815,709,16312,-3748,1380,770,875,-3090
6308,992,681,949,787,708,16920,-3180,1368,376,905,-3009
6311,988,670,961,768,702,16688,-3076,444,218,702,-3005
6314,982,671,970,758,703,16188,-3404,772,294,626,-2992
6317,974,624,967,749,701,16204,-3004,1056,241,1059,-3007
6320,973,640,974,739,694,15968,-3400,1076,195,906,-3053
6323,961,644,969,734,692,15688,-3428,1012,237,986,-3149
6326,961,647,969,735,693,15600,-3404,1204,503,818,-3182
6329,967,640,974,741,694,15572,-3344,876,269,730,-3216
6332,975,642,976,727,702,16104,-3920,1192,1159,795,-2983
6335,979,626,975,707,699,16000,-3660,1072,817,717,-3203
6338,971,640,973,688,695,16340,-3272,1412,587,928,-3117
6341,969,609,976,685,689,15800,-3180,1180,-12,979,-3249
6344,962,625,976,671,685,16428,-3100,1328,292,1231,-3392
6347,960,606,974,668,688,15912,-3964,928,1422,226,-3068
6350,961,631,969,679,688,15928,-4016,1096,920,-181,-2895
6353,955,635,958,688,683,16800,-3432,1288,605,471,-2898
6356,969,643,959,691,683,16416,-3664,1184,422,614,-2919
6359,967,659,958,688,679,16388,-4028,1012,771,350,-2703
6362,960,640,954,667,686,16240,-3552,1076,324,153,-2741
6365,954,674,947,668,681,16104,-3428,1440,366,193,-2704
6368,950,659,949,688,684,16148,-3476,1128,975,-294,-2511
6371,943,685,953,703,677,16424,-3096,1112,839,-486,-2394
6374,941,688,953,703,678,16320,-3144,1216,636,18,-2397
6377,942,684,958,699,677,16400,-3824,1336,1139,-256,-2117
6380,944,687,981,687,678,16024,-3444,1284,731,-751,-2190
6383,940,690,960,666,677,16156,-3580,1036,1096,-778,-2136
6386,944,685,958,656,679,16320,-3228,1296,1124,-443,-2344
6389,959,662,961,640,683,16256,-2868,1296,977,-273,-2464
6392,959,659,967,635,678,16112,-3444,1060,1600,-461,-2258
6395,960,621,970,635,683,16344,-2840,1008,1565,-351,-2371
6398,948,656,969,630,679,16148,-3216,840,1859,-434,-2295
6401,944,656,965,637,675,16436,-2764,1192,1907,-567,-2273
6404,960,644,965,649,666,16796,-3056,1072,1754,-658,-2233
6407,965,645,965,649,673,16728,-2968,1096,1517,-778,-2366
6410,966,625,970,631,677,16796,-2240,1188,566,-599,-2550
6413,955,592,973,624,687,16940,-2876,1380,688,-346,-2509
6416,943,589,977,630,686,17136,-2856,1056,555,-282,-2548
6419,946,587,985,640,685,16940,-2528,872,118,-282,-2553
6422,945,566,992,652,674,17112,-2552,884,364,-232,-2515
6425,959,581,994,653,681,17296,-2624,836,122,71,-2494
6428,954,592,1005,649,681,17348,-2628,924,111,441,-2485
6431,948,582,999,656,681,17392,-2548,772,-66,725,-2450
6434,949,597,999,669,690,17124,-3360,728,-546,216,-2580
6437,959,581,1008,666,686,17308,-3380,860,-759,1417,-2771
6440,958,624,1008,654,688,17640,-3584,1056,-595,2179,-2558
6443,958,650,1011,633,685,17532,-2988,1008,-274,2097,-2525
6446,963,665,1013,619,682,16916,-2944,1300,105,1306,-2361
6449,959,683,1022,618,683,17148,-2208,1460,-1084,1036,-2440
6452,957,688,1020,626,681,17340,-2176,1404,-1761,945,-2760
6455,962,706,1021,656,683,16640,-2688,1732,-1222,655,-2834
6458,949,707,1011,667,688,16916,-2212,1428,-1124,553,-2941
6461,949,713,1009,663,683,17148,-2268,1164,-714,786,-2857
6464,944,725,1005,660,685,16928,-2440,1232,-839,941,-2943
6467,947,725,1002,663,682,16984,-2456,1680,-1251,1735,-3106
6470,956,731,985,663,682,16444,-2636,1464,-66,1372,-3264
6473,959,750,985,677,685,16476,-1940,496,800,163,-3373
6476,961,720,976,691,685,16704,-1908,1532,456,743,-3357
6479,954,733,970,686,687,17512,-1716,2216,-32,1320,-3551
6482,943,756,962,685,685,16880,-2156,1612,-526,781,-3379
6485,943,769,958,682,685,16716,-2372,1940,-1843,1881,-3729
6488,944,761,961,654,688,17600,-1232,2868,-1337,2719,-3864
6491,941,763,954,656,690,15440,-3812,684,938,431,-2840
6494,936,764,947,671,693,16096,-2924,1472,498,560,-2821
6497,927,753,957,661,695,16680,-2776,1624,480,840,-2739
6500,923,752,945,656,688,16860,-2860,1156,-296,818,-2798
6503,927,759,944,644,697,16220,-3032,1428,-473,736,-2764
6506,932,751,941,636,696,16364,-3392,1076,-312,820,-2569
6509,939,753,928,624,695,16028,-3220,1712,-242,626,-2332
6512,928,756,924,601,688,15820,-3428,1912,-122,453,-2046
6515,944,784,926,617,702,15924,-3160,1636,-122,352,-2010
6518,935,794,931,599,706,15748,-3348,1200,564,203,-1736
6521,937,791,926,592,714,16004,-3668,1184,879,526,-1668
6524,940,816,919,583,702,16236,-3364,1268,843,346,-1709
6527,947,787,915,605,708,15936,-3312,1444,872,173,-1648
6530,941,783,925,592,695,15792,-3452,976,1190,-405,-1442
6533,938,791,918,595,700,16488,-3232,944,1288,-173,-1335
6536,935,789,925,593,702,16164,-3176,1140,1506,-372,-1313
6539,929,790,927,601,705,16048,-2964,1236,1052,-500,-1386
6542,941,779,931,606,711,16104,-3052,1076,1300,-453,-1405
6545,941,773,933,615,714,16352,-2868,724,1567,-465,-1377
6548,934,766,935,611,711,16552,-2332,900,1316,-370,-1540
6551,931,768,944,595,719,16752,-2456,684,1295,-123,-1532
6554,935,769,939,611,708,16132,-2684,800,1137,-143,-1631
6557,933,771,940,615,704,15976,-2820,508,1178,-664,-1570
6560,928,785,930,620,709,16268,-2608,1116,1344,-483,-1427
6563,931,790,927,594,704,16180,-2496,1056,1446,-564,-1237
6566,939,787,923,617,707,16360,-2524,1228,1444,-443,-1216
6569,942,782,915,629,705,16252,-2152,1304,1477,-429,-1205
6572,944,781,915,629,704,16428,-2332,1108,1448,-781,-1183
6575,933,775,917,624,708,16372,-2648,1108,1408,-893,-1145
6578,927,775,923,614,720,16744,-2028,1232,1035,-902,-1136
6581,927,761,925,610,720,16904,-1796,1420,855,-776,-1014
6584,928,755,927,615,719,16960,-1984,1068,807,-902,-928
6587,930,743,923,623,720,16868,-2164,1036,810,-853,-934
6590,927,743,923,623,719,17044,-1968,1156,721,-756,-853
6593,923,733,931,624,710,16680,-2140,1072,630,-590,-779
6596,917,717,925,630,706,16888,-2064,1164,532,-358,-769
6599,925,705,919,635,706,17172,-1796,1152,459,-147,-738
6602,929,688,923,647,705,17108,-1672,1272,385,-77,-728
6605,927,677,927,656,695,17140,-1512,1312,325,94,-703
6608,927,665,921,656,695,17072,-1372,1396,152,109,-698
6611,928,668,925,655,703,17080,-1312,1344,12,8,-756
6614,939,678,928,645,704,17228,-1512,1268,-144,-156,-765
6617,929,684,928,640,707,17264,-1628,1368,-326,-108,-776
6620,925,687,932,651,702,17124,-1504,1460,-493,-217,-780
6623,920,681,935,649,694,17272,-1428,1328,-714,-77,-825
6626,921,682,927,656,695,17292,-1368,1364,-992,35,-868
6629,923,681,932,661,700,17156,-1524,1364,-1077,107,-879
6632,917,686,929,656,694,17280,-1704,1248,-1107,253,-855
6635,934,690,926,654,692,17168,-1712,1348,-1314,359,-894
6638,931,694,933,639,688,17144,-1956,1296,-1433,549,-902
6641,933,699,930,659,690,17032,-2044,1388,-1535,543,-911
6644,931,701,931,662,693,17008,-2012,1384,-1605,432,-907
6647,933,711,939,665,691,17128,-1992,1508,-1658,522,-874
6650,932,720,935,673,698,17088,-2144,1568,-1567,496,-810
6653,927,723,932,688,690,16908,-1948,1596,-1670,449,-746
6656,921,736,925,686,689,16996,-2112,1552,-1595,379,-639
6659,921,739,919,674,687,16972,-2224,1504,-1501,378,-592
6662,929,747,921,686,687,17124,-2176,1476,-1489,426,-650
6665,928,749,920,677,688,16996,-2168,1444,-1436,375,-622
6668,932,755,917,674,688,17156,-2208,1688,-1395,481,-650
6671,929,757,923,671,686,17032,-2212,1624,-1252,536,-571
6674,931,767,930,666,681,16896,-2200,1572,-1102,541,-565
6677,934,773,927,656,679,16684,-2284,1388,-902,498,-562
6680,935,762,929,638,682,16864,-1996,1628,-767,423,-620
6683,945,786,934,637,675,16816,-2032,1624,-638,319,-638
6686,955,790,944,645,678,16928,-2004,1708,-556,200,-628
6689,958,793,940,656,686,16916,-1888,1888,-611,99,-571
6692,954,814,942,670,686,16784,-2032,1668,-682,17,-521
6695,955,800,942,675,682,16756,-1952,1704,-817,-74,-573
6698,951,792,939,670,686,16724,-2024,1500,-778,-82,-513
6701,943,785,930,670,688,17000,-1900,1432,-781,177,-499
6704,937,783,930,659,689,16780,-1768,1172,-708,156,-433
6707,939,784,928,646,688,16748,-1988,1060,-566,76,-383
6710,927,784,927,625,688,16696,-2068,832,-558,26,-361
6713,939,791,931,619,688,16832,-2068,1316,-720,82,-339
6716,944,784,925,619,689,16964,-2124,1244,-811,24,-302
6719,953,768,929,614,683,16804,-2268,1336,-911,-2,-270
6722,953,762,921,617,686,16928,-2184,1380,-1106,24,-268
6725,947,768,913,621,686,16932,-2364,1384,-1190,-3,-254
6728,944,769,917,629,687,16884,-2316,1436,-1270,-13,-245
6731,938,768,926,624,685,17120,-2268,1440,-1324,6,-275
6734,939,765,921,621,683,17124,-2188,1368,-1386,-17,-279
6737,944,753,926,614,682,17264,-2200,1144,-1369,42,-325
6740,944,751,932,614,683,17164,-2308,1236,-1272,64,-358
6743,937,743,929,615,678,17220,-2168,992,-1210,85,-381
6746,939,738,930,629,678,17276,-2236,1040,-1162,101,-429
6749,939,736,937,629,678,17408,-2232,1232,-1125,80,-452
6752,937,726,931,633,674,17424,-2112,1228,-1132,113,-503
6755,927,711,937,640,677,17428,-2132,1156,-1027,78,-470
6758,938,720,931,656,683,17412,-2112,1180,-1075,56,-500
6761,935,714,930,659,683,17452,-2180,1128,-1076,78,-530
6764,939,717,926,658,702,17444,-2124,1372,-1152,78,-557
6767,943,722,930,659,713,17220,-2200,1572,-1086,15,-599
6770,935,720,930,660,715,17332,-2016,1556,-1097,-7,-625
6773,935,720,933,666,720,17412,-1976,1648,-1151,29,-644
6776,936,719,933,671,718,17400,-1924,1536,-1070,125,-670
6779,935,717,929,677,715,17424,-1796,1476,-1145,239,-741
6782,938,714,926,677,707,17128,-2056,1240,-983,168,-697
6785,933,711,922,675,707,17208,-2064,1264,-989,148,-663
6788,936,705,918,684,704,17036,-1840,1416,-933,135,-677
