Time,MMG1,MMG2,MMG3,MMG4,EMG,AccelX,AccelY,AccelZ,GyroX,GyroY,GyroZ
0,817,759,859,753,1612,5056,-16040,504,-956,-102,-71
4,821,757,858,749,1526,4976,-16008,380,-985,-96,-45
7,816,755,863,749,1459,5044,-16036,380,-975,-78,-57
10,799,739,848,734,1370,5084,-15984,584,-973,-92,-60
13,799,741,854,735,1310,5112,-16108,500,-983,-49,-47
16,803,738,852,733,1251,5172,-16016,368,-976,-29,-58
19,801,733,856,734,1194,5036,-16120,396,-975,-74,-45
22,801,734,850,734,1137,5040,-16116,416,-973,-87,-70
25,802,738,849,733,1082,5044,-16068,364,-990,-69,-48
28,800,732,849,735,1020,5132,-16020,496,-933,-65,-28
31,801,736,851,735,967,4992,-16172,540,-957,-79,-15
34,800,734,850,734,923,4996,-16100,352,-944,-74,-8
37,797,747,849,733,871,5024,-16080,568,-932,-73,-3
40,794,732,850,733,822,5012,-16060,460,-926,-91,-7
43,810,731,852,735,783,5076,-16068,464,-910,-53,-3
46,800,719,851,734,741,5060,-16044,284,-896,-59,18
49,795,723,848,731,690,5044,-15992,424,-895,-42,-3
52,797,723,847,739,665,5064,-16020,496,-881,-12,-17
55,795,727,848,741,626,5020,-16004,476,-870,6,-1
58,795,725,852,736,592,4988,-16000,584,-893,35,14
61,794,731,848,733,562,4996,-15988,376,-897,21,-4
64,794,726,851,740,529,4988,-15996,464,-917,42,-5
67,795,732,852,733,496,4928,-16020,524,-935,35,2
70,799,734,847,734,466,4968,-15972,392,-913,11,-19
73,801,730,850,739,441,4916,-15920,368,-901,23,-19
76,800,730,848,743,414,4972,-15856,320,-960,48,-37
79,798,731,848,736,389,4840,-15976,436,-935,28,-28
82,800,730,851,737,367,4936,-15908,388,-960,-14,-31
85,799,731,854,734,340,4852,-16068,380,-947,-48,-34
88,803,735,848,737,319,4856,-15984,428,-955,-28,-43
91,800,733,848,734,295,4872,-16116,324,-943,-33,-26
94,799,731,849,736,275,4812,-16096,348,-924,-73,-23
97,803,726,848,739,257,4848,-16064,276,-912,-75,-16
100,799,733,851,739,240,4912,-16040,380,-937,-72,-30
103,801,737,851,736,225,4868,-16084,420,-920,-96,-45
106,800,745,848,737,201,4972,-16000,476,-912,-74,-39
109,805,735,849,738,189,4932,-15968,396,-920,-51,-29
112,798,740,849,738,176,4824,-16112,364,-911,-60,-38
115,801,738,851,738,159,4920,-16040,460,-950,-34,-34
118,798,735,853,737,142,4884,-16076,476,-918,-26,-36
121,795,738,854,735,128,4880,-15936,224,-940,-21,-22
124,801,741,849,741,112,4836,-16108,496,-936,27,-48
127,802,737,848,737,97,4956,-16112,328,-914,22,-38
130,799,739,848,737,86,4872,-16000,464,-921,8,-32
133,801,735,850,742,77,4840,-16052,352,-917,13,-48
136,798,752,848,733,62,4756,-16088,536,-905,9,-67
139,798,735,853,736,52,4788,-16016,480,-891,3,-45
142,801,731,848,726,41,4720,-16108,508,-881,13,-70
145,801,738,851,733,29,4820,-16120,452,-896,-4,-81
148,797,735,848,745,25,4776,-16112,428,-886,-20,-49
151,797,736,848,737,12,4828,-15940,472,-894,5,-67
154,797,736,855,741,3,4804,-16040,352,-885,-4,-63
157,797,735,854,732,0,4776,-16100,340,-883,-13,-89
160,805,743,848,735,0,4824,-16056,356,-897,32,-84
163,802,735,850,738,0,4864,-16064,364,-897,4,-105
166,800,729,850,735,0,4800,-16036,384,-895,25,-96
169,805,735,858,736,0,4832,-15972,432,-914,41,-94
172,803,733,852,736,0,4800,-16020,324,-877,29,-110
175,799,737,851,737,0,4796,-15988,336,-884,37,-92
178,800,731,848,736,0,4872,-15984,372,-881,44,-105
181,806,730,854,736,0,4788,-16060,272,-887,28,-82
184,800,731,849,737,0,4832,-16000,380,-874,35,-93
187,801,735,851,739,0,4784,-16052,404,-872,7,-102
190,801,731,848,739,0,4724,-16072,460,-879,7,-71
193,804,738,850,738,0,4804,-16032,316,-889,-16,-88
196,803,738,851,735,0,4688,-16016,364,-881,-25,-91
199,807,738,853,734,0,4780,-15996,484,-912,-45,-116
202,802,735,848,737,0,4736,-15980,356,-903,-51,-116
205,806,738,848,735,0,4764,-15988,328,-920,-43,-113
208,805,740,854,731,0,4644,-16056,436,-937,-71,-139
211,812,741,848,737,0,4728,-16008,484,-931,-41,-146
214,803,745,852,735,0,4664,-16124,440,-938,-58,-168
217,803,738,851,733,0,4716,-16136,476,-922,-55,-175
220,816,741,853,735,0,4832,-16064,392,-958,-79,-178
223,803,747,850,732,0,4848,-16008,356,-924,-16,-223
226,810,741,857,731,0,4724,-16132,232,-943,-4,-217
229,805,750,853,733,0,4780,-16052,420,-936,0,-230
232,804,749,855,732,0,4812,-16088,384,-892,-10,-205
235,807,752,851,733,0,4816,-16080,244,-862,24,-205
238,797,752,848,733,0,4840,-16080,424,-865,-2,-189
241,806,751,852,734,0,4776,-16136,320,-837,-39,-189
244,807,750,848,746,0,4892,-16168,336,-835,-137,-172
247,799,747,851,734,0,4960,-16060,192,-839,-139,-173
250,801,745,853,738,0,5028,-16168,424,-815,-100,-183
253,806,739,850,731,0,5068,-16024,340,-819,-123,-159
256,796,738,852,735,0,4960,-16100,308,-799,71,-113
259,807,739,851,737,0,4956,-16120,416,-794,78,-133
262,803,735,850,733,0,5048,-16048,500,-855,-89,-133
265,805,734,851,733,0,5116,-16112,396,-868,19,-141
268,799,732,849,733,0,4844,-16248,300,-903,-179,-142
271,798,735,848,735,0,4988,-16100,500,-893,-198,-188
274,805,738,853,735,0,5320,-16116,576,-806,7,-111
277,800,739,854,734,0,5264,-16124,480,-794,219,-106
280,799,743,848,738,0,5060,-16092,528,-776,198,-85
283,790,735,854,738,0,5004,-16040,428,-789,-60,-86
286,799,736,865,735,0,5092,-16160,344,-757,-163,-94
289,806,727,849,735,0,5136,-16108,444,-732,-268,-64
292,806,735,854,730,0,5288,-16060,500,-734,-157,-113
295,802,731,851,732,0,5376,-15988,344,-794,-91,-112
298,805,734,855,736,0,5336,-15856,432,-783,31,-109
301,799,727,849,733,0,5300,-16096,448,-714,83,-74
304,800,733,854,734,0,5212,-15968,412,-816,-114,-67
307,798,727,849,739,0,5248,-15832,296,-873,-77,-98
310,795,735,848,733,0,5396,-15892,520,-795,122,-52
313,790,730,848,741,0,5400,-15988,240,-898,42,-64
316,796,730,850,739,0,5412,-15956,448,-870,127,-72
319,795,727,854,746,0,5376,-15980,376,-856,194,-61
322,798,734,850,741,0,5284,-15928,376,-874,161,-35
325,799,726,850,738,0,5340,-15884,420,-856,52,-21
328,796,725,848,743,0,5268,-15952,516,-821,-39,44
331,799,724,847,745,0,5348,-15848,464,-800,-107,28
334,789,731,853,747,0,5416,-15884,512,-741,-25,85
337,797,731,848,744,0,5440,-15744,476,-731,-63,113
340,797,723,853,747,0,5328,-15780,500,-730,-165,119
343,801,736,851,749,0,5248,-15888,740,-685,-222,124
346,810,729,853,745,0,5404,-15728,720,-692,-119,147
349,805,734,854,738,0,5336,-15820,632,-661,-79,156
352,804,729,850,742,0,5228,-15804,668,-669,-54,139
355,796,737,850,742,0,5248,-15712,476,-671,-51,172
358,801,741,857,730,0,5204,-15908,680,-667,-11,173
361,802,740,851,741,0,5276,-15976,564,-679,16,153
364,793,742,853,743,0,5176,-16072,468,-708,10,160
367,800,743,851,739,0,5284,-16028,592,-713,20,172
370,799,742,855,747,0,5156,-16160,548,-730,9,220
373,797,744,855,739,0,5088,-16168,492,-752,-46,193
376,793,743,853,741,0,5064,-16028,452,-750,-99,198
379,799,741,848,736,0,5216,-16104,368,-793,-43,201
382,797,735,851,750,0,4960,-16276,628,-837,-184,176
385,801,732,854,752,0,5004,-16108,508,-864,-164,177
388,798,738,855,747,0,5064,-16144,584,-830,-62,225
391,794,739,853,745,0,5180,-16172,568,-837,-135,197
394,791,733,855,747,0,4936,-16244,664,-860,-220,167
397,798,735,850,748,0,4956,-16060,652,-862,-264,187
400,794,734,849,743,0,5016,-16020,524,-879,-126,173
403,797,735,853,745,0,4988,-16048,484,-817,-37,213
406,798,734,858,741,0,5016,-16096,656,-794,118,265
409,796,731,855,745,0,5112,-15972,604,-841,-1,244
412,795,730,857,750,0,5284,-15824,640,-782,277,285
415,795,728,850,746,0,5332,-15964,708,-714,371,315
418,789,725,853,749,0,4960,-15940,588,-788,156,334
421,791,737,849,747,0,4832,-15940,536,-813,-68,357
424,794,726,849,749,0,5048,-15852,420,-809,-75,296
427,803,729,853,744,0,5216,-15800,472,-825,-62,296
430,795,733,857,749,0,5164,-15860,688,-822,-91,308
433,797,730,850,750,0,5064,-15896,628,-865,-168,293
436,809,732,854,743,0,5120,-15956,476,-878,-127,288
439,797,721,850,746,0,5060,-15944,492,-872,8,301
442,796,733,848,750,0,5020,-15920,432,-859,47,296
445,797,727,853,742,0,4904,-15868,452,-895,95,295
448,799,737,853,750,0,4952,-15984,412,-867,193,308
451,798,738,850,743,0,4824,-16124,460,-838,187,312
454,809,739,851,744,0,4688,-15992,404,-894,186,294
457,801,733,851,751,0,4672,-16068,348,-900,93,310
460,798,728,855,747,0,4724,-16060,388,-878,-42,271
463,798,736,854,745,0,4768,-16188,128,-855,-51,293
466,798,738,853,741,0,4776,-16200,512,-833,32,335
469,799,733,853,747,0,4852,-16232,384,-828,-37,308
472,799,735,858,747,0,4884,-16068,276,-952,-46,263
475,801,734,859,746,0,4720,-16088,408,-866,-214,338
478,795,735,858,747,0,4580,-16188,472,-836,-77,351
481,799,735,850,748,0,4792,-16160,464,-761,145,431
484,800,734,849,743,0,4664,-16136,316,-754,54,442
487,794,733,848,745,0,4732,-16156,440,-714,174,476
490,795,732,851,749,0,4672,-16172,276,-664,76,474
493,795,735,854,748,0,4932,-16104,504,-682,254,422
496,800,737,853,745,0,4856,-16260,348,-745,284,407
499,797,741,848,744,0,4632,-16140,340,-763,341,325
502,795,742,852,744,0,4844,-16208,236,-741,210,372
505,797,745,851,741,0,4732,-16084,272,-826,235,329
508,803,741,849,742,0,4728,-16036,528,-875,364,242
511,798,742,855,743,0,4628,-16088,372,-980,19,191
514,796,738,848,742,0,4500,-16080,404,-969,-22,150
517,801,742,850,744,0,4640,-16160,452,-960,131,139
520,800,739,854,746,0,4524,-16092,460,-940,139,110
523,804,755,848,745,0,4608,-16132,376,-914,175,152
526,800,742,849,740,0,4532,-16160,504,-877,133,151
529,799,737,850,745,0,4440,-16100,400,-903,250,137
532,801,739,851,761,0,4440,-16124,412,-858,273,133
535,802,738,853,743,0,4364,-16124,552,-769,136,196
538,803,739,863,742,0,4208,-16168,388,-829,-43,177
541,801,740,848,746,0,4484,-16140,540,-835,121,156
544,800,738,848,745,0,4480,-16008,476,-858,229,85
547,806,737,852,742,0,4328,-15944,412,-847,203,99
550,799,735,849,737,0,4380,-16012,448,-874,197,84
553,799,736,850,747,0,4392,-16076,556,-847,272,84
556,802,730,849,742,0,4448,-15892,604,-886,412,24
559,803,731,853,745,0,4292,-16004,472,-916,376,51
562,806,731,848,738,0,4420,-16224,568,-882,189,10
565,803,738,859,738,0,4280,-16092,412,-943,59,-25
568,800,736,850,745,0,4420,-16068,428,-905,65,-27
571,801,738,853,747,0,4376,-16052,508,-916,40,-23
574,802,739,853,738,0,4368,-16092,512,-893,-99,-44
577,800,735,851,742,0,4352,-16092,520,-931,-187,-49
580,799,741,852,747,0,4372,-16100,460,-886,-210,-37
583,804,741,849,742,0,4640,-15988,488,-916,-128,-66
586,799,740,851,741,0,4468,-16120,480,-846,-8,-33
589,803,738,848,741,0,4512,-16048,588,-911,116,-106
592,800,738,850,740,0,4412,-15924,472,-899,54,-82
595,801,738,851,740,0,4512,-15992,576,-955,277,-156
598,806,740,851,733,0,4428,-16240,276,-892,37,-118
601,810,746,848,731,0,4424,-16052,496,-937,-27,-204
604,801,744,853,737,0,4420,-16052,436,-892,-95,-159
607,806,741,849,739,0,4620,-16020,428,-933,-76,-199
610,803,747,854,733,0,4432,-16008,460,-889,-83,-163
613,810,746,854,730,0,4584,-16000,488,-881,-145,-135
616,803,747,859,735,0,4756,-15944,672,-896,-205,-212
619,799,752,861,741,0,4680,-16012,504,-935,-170,-186
622,805,750,854,732,0,4576,-15908,516,-898,-171,-145
625,802,741,858,734,0,4744,-16000,648,-890,-177,-186
628,806,744,858,727,0,5004,-15944,520,-914,-191,-198
631,803,746,854,734,0,4992,-15980,572,-881,-73,-183
634,806,747,855,735,0,4800,-15868,444,-963,92,-190
637,803,747,851,732,0,4688,-15832,460,-961,-33,-184
640,803,745,857,725,0,4916,-16172,548,-900,-183,-221
643,805,746,850,730,0,5268,-16136,472,-887,-227,-201
646,805,740,863,737,0,5196,-16000,588,-865,-85,-185
649,799,752,853,731,0,5328,-16060,460,-848,-30,-160
652,801,752,857,733,0,5220,-16052,456,-888,-151,-128
655,810,751,855,731,0,5172,-16076,456,-876,-239,-147
658,803,752,857,736,0,5172,-16048,632,-851,-258,-124
661,807,745,855,738,0,5216,-16156,560,-854,-206,-105
664,805,738,849,733,0,5228,-16048,568,-879,-180,-109
667,804,746,853,736,0,5240,-16088,420,-872,-135,-104
670,804,739,853,741,0,5180,-16136,448,-909,-154,-93
673,795,745,851,737,0,4948,-16164,296,-875,-122,-65
676,807,740,849,737,0,5048,-16180,544,-867,-170,-82
679,808,737,850,739,0,5200,-16184,436,-877,-162,-94
682,802,737,857,740,0,5200,-16180,464,-895,-149,-56
685,804,739,848,742,0,5096,-16116,540,-887,-147,-55
688,803,738,855,745,0,4952,-16216,432,-896,-115,-54
691,803,735,852,739,0,4968,-16132,532,-907,-141,-43
694,797,733,851,735,0,4980,-16136,436,-907,-168,-67
697,800,738,851,739,0,4992,-16080,624,-895,-168,-25
700,800,731,848,742,0,5016,-16160,532,-895,-165,-19
703,803,733,851,738,0,5004,-16104,604,-887,-163,-26
706,813,731,854,739,0,4980,-16112,556,-879,-150,-41
709,797,720,853,738,0,5064,-16212,396,-878,-150,-4
712,799,737,855,741,0,4972,-16076,576,-880,-92,-26
715,800,733,851,745,0,5080,-16032,456,-846,-82,-33
718,800,732,853,737,0,5008,-15956,652,-909,72,-78
721,805,736,848,742,0,4836,-15932,548,-939,121,-68
724,799,735,848,743,0,4996,-16240,460,-833,72,-37
727,795,725,853,737,0,4996,-16128,528,-886,-42,-54
730,799,733,851,739,0,5104,-16040,504,-853,34,-66
733,795,732,850,739,0,5068,-16016,488,-822,138,-13
736,799,735,850,741,0,4936,-15912,516,-826,6,10
739,797,738,852,742,0,4904,-16032,484,-863,-126,-15
742,794,734,848,739,0,4828,-16060,540,-856,-193,-14
745,799,738,854,739,0,4912,-16020,420,-875,-179,-24
748,799,741,848,747,0,5028,-15988,276,-892,-99,-26
751,800,742,849,743,0,4908,-16096,580,-901,-82,-60
754,801,745,850,746,0,4848,-16036,432,-937,-59,-37
757,802,750,851,738,0,4776,-16120,520,-882,37,-49
760,799,743,854,740,0,4784,-16112,600,-872,39,-45
763,801,747,850,741,0,4732,-16140,424,-869,49,-47
766,797,748,851,738,0,4720,-16204,576,-860,64,-47
769,798,741,849,741,0,4852,-16104,424,-857,63,-39
772,799,747,850,743,0,4768,-16276,524,-863,45,-51
775,801,747,854,741,0,4752,-16120,412,-871,30,-62
778,797,743,851,742,0,4724,-16220,544,-858,-7,-61
781,801,739,851,741,0,4744,-16204,532,-859,-19,-49
784,788,736,853,740,0,4724,-16160,408,-833,20,-74
787,796,736,851,741,0,4716,-16124,484,-847,-3,-22
790,795,733,851,743,0,4736,-16040,524,-831,10,-40
793,794,734,848,745,0,4772,-16020,600,-841,46,-38
796,793,734,854,738,0,4712,-15988,564,-848,66,-49
799,795,735,847,743,0,4836,-15988,536,-846,80,-53
802,797,733,854,739,0,4744,-15976,652,-841,107,-44
805,798,734,853,742,0,4752,-15956,452,-844,115,-52
808,802,738,853,745,0,4724,-15952,580,-844,114,-36
811,801,739,848,739,0,4760,-15916,552,-824,141,-47
814,800,734,851,741,0,4700,-15972,624,-840,133,-42
817,801,738,851,737,0,4760,-16028,648,-831,104,-36
820,799,734,850,741,0,4644,-16020,576,-834,104,-35
823,799,737,849,739,0,4716,-15968,620,-848,90,-50
826,801,741,852,742,0,4668,-15996,632,-860,57,-38
829,790,734,847,739,0,4644,-15984,788,-852,41,-43
832,806,739,848,737,0,4660,-15928,596,-875,22,-75
835,801,738,854,740,0,4744,-16004,568,-888,-23,-67
838,805,740,854,739,0,4508,-15912,520,-901,-38,-78
841,801,741,854,741,0,4684,-15980,616,-932,-52,-63
844,805,741,854,738,0,4668,-15940,536,-887,-92,-92
847,802,738,851,735,0,4604,-16020,588,-936,-101,-86
850,802,737,853,737,0,4552,-15968,580,-960,-99,-86
853,805,737,854,738,0,4692,-15968,600,-932,-118,-86
856,803,739,848,741,0,4708,-16016,672,-954,-104,-108
859,806,743,856,736,0,4704,-16092,588,-963,-118,-111
862,805,738,850,741,0,4684,-16068,540,-946,-121,-99
865,806,747,857,734,0,4696,-16012,640,-956,-108,-99
868,802,743,851,734,0,4696,-16048,472,-930,-118,-106
871,803,739,850,734,0,4656,-16012,664,-948,-108,-104
874,807,742,857,737,0,4856,-15992,636,-957,-118,-97
877,802,748,841,734,0,4776,-16032,540,-957,-114,-118
880,800,744,855,733,0,4736,-16004,624,-960,-138,-112
883,802,742,851,737,0,4840,-16036,540,-968,-137,-117
886,804,745,855,733,0,4792,-15980,524,-982,-137,-117
889,802,749,849,732,0,4872,-15916,616,-998,-141,-128
892,797,752,859,733,0,4916,-15996,700,-1019,-135,-119
895,805,753,858,733,0,4896,-15952,764,-1009,-162,-131
898,808,751,851,729,0,4912,-16032,752,-1010,-150,-119
901,810,752,849,735,0,5016,-15776,700,-1081,-25,-193
904,802,749,851,738,0,4796,-15876,692,-1074,-2,-177
907,810,750,857,730,0,4828,-16216,560,-1022,-38,-165
910,803,745,853,734,0,4968,-16212,528,-1027,-192,-160
913,810,746,858,736,0,5124,-16152,468,-1009,-86,-128
916,802,743,853,737,0,5112,-16052,536,-991,8,-110
919,803,740,851,738,0,4956,-16048,480,-991,-130,-86
922,812,739,854,737,0,4868,-16044,464,-1024,-245,-77
925,801,737,851,738,0,5096,-16068,400,-1020,-347,-50
928,803,741,858,739,0,5044,-16124,536,-1018,-309,-67
931,806,743,849,738,0,5088,-16148,552,-1040,-206,-91
934,809,741,851,738,0,5032,-16228,552,-1085,-222,-81
937,806,742,859,741,0,5040,-16152,376,-1049,-206,-55
940,805,741,848,742,0,4988,-16100,384,-1038,-138,-57
943,804,740,851,739,0,4988,-16096,552,-1031,-30,-56
946,805,738,854,737,0,4956,-16056,556,-1052,59,-101
949,806,741,848,742,0,4828,-16152,600,-995,19,-58
952,808,738,855,739,0,4892,-16084,528,-1016,-78,-44
955,807,734,848,745,0,5064,-16200,492,-967,-74,-59
958,801,736,878,743,0,4916,-16088,616,-972,74,-50
961,807,736,851,743,0,4820,-16228,244,-956,-29,-63
964,801,736,853,743,0,4820,-16072,484,-959,-188,-71
967,801,735,848,738,0,4840,-16232,364,-951,-220,-80
970,802,735,850,724,0,4860,-16192,456,-912,-122,-33
973,795,734,852,734,0,4896,-16192,412,-880,-45,-58
976,801,736,857,734,0,5036,-16096,364,-914,-48,-21
979,801,738,848,733,0,5028,-16024,468,-926,-14,-46
982,797,733,850,750,0,5016,-16092,392,-883,-31,-2
985,798,737,850,738,0,4760,-16036,260,-958,-135,-1
988,787,734,851,736,0,4788,-16144,404,-978,-200,-14
991,800,737,850,738,0,4984,-16080,176,-933,-249,-57
994,800,739,853,738,0,5356,-15984,432,-883,-59,-28
997,799,742,855,740,0,5352,-16008,608,-937,127,-44
1000,797,738,853,741,0,5132,-16088,520,-877,65,-9
1003,802,752,848,737,0,4996,-16140,640,-918,-11,-7
1006,801,741,855,735,0,4904,-16152,432,-891,-4,-22
1009,800,743,853,739,0,5004,-16156,552,-897,40,-47
1012,798,741,850,746,0,4968,-16116,428,-885,-36,-45
1015,799,745,857,735,0,5088,-16040,588,-867,-21,-5
1018,799,741,853,743,0,5092,-16048,360,-886,57,-32
1021,795,731,854,739,0,5072,-16140,676,-815,46,-4
1024,796,736,851,743,0,4904,-16136,536,-828,9,0
1027,799,739,852,739,0,5012,-16236,536,-847,33,-19
1030,800,737,857,738,0,4972,-16196,548,-840,136,-18
1033,802,739,861,741,0,5064,-16040,780,-820,162,22
1036,805,740,849,743,0,4924,-16096,516,-832,153,30
1039,802,733,850,746,0,4764,-16084,496,-810,141,18
1042,803,731,849,747,0,4780,-16048,492,-823,111,42
1045,803,740,856,738,0,4768,-16152,348,-781,103,55
1048,798,731,852,743,0,4780,-15972,472,-816,99,54
1051,797,732,854,745,0,4764,-16068,500,-825,19,48
1054,796,733,853,743,0,4788,-16092,584,-841,60,37
1057,797,731,850,747,0,4800,-16008,540,-816,42,43
1060,800,738,855,747,0,4804,-16080,528,-828,46,38
1063,799,731,855,743,0,4776,-16052,556,-847,72,59
1066,787,733,853,743,0,4792,-16044,376,-847,75,49
1069,801,747,851,758,0,4824,-16000,684,-847,97,64
1072,797,736,854,741,0,4728,-16092,668,-860,107,40
1075,801,734,850,741,0,4800,-16068,700,-851,95,22
1078,793,733,853,746,0,4780,-16052,632,-832,132,57
1081,797,731,852,738,0,4688,-16068,480,-865,118,13
1084,799,737,850,743,0,4764,-16036,564,-861,115,36
1087,800,739,848,739,0,4708,-16064,544,-863,98,13
1090,798,741,864,735,0,4660,-16116,652,-864,103,17
1093,801,735,858,739,0,4864,-16092,568,-887,81,-4
1096,799,738,851,741,0,4816,-16108,612,-869,73,12
1099,800,738,849,743,0,4788,-16076,608,-900,75,-1
1102,797,741,855,736,0,4804,-16012,624,-884,89,2
1105,795,737,858,740,0,4812,-16020,644,-903,78,-7
1108,801,739,861,738,0,4792,-16092,664,-896,93,27
1111,795,739,854,746,0,4888,-16052,628,-906,103,-3
1114,800,752,850,741,0,4908,-16008,596,-914,96,9
1117,799,732,855,739,0,4856,-15948,616,-922,97,2
1120,798,742,851,743,0,4752,-15952,556,-926,55,6
1123,799,739,856,743,0,4880,-15920,648,-937,91,5
1126,799,739,856,742,0,4868,-15920,528,-933,40,20
1129,800,739,850,742,0,4800,-15896,676,-938,47,25
1132,794,744,848,745,0,4908,-15788,740,-983,57,38
1135,801,739,854,741,0,4820,-15780,696,-1042,176,-39
1138,800,733,854,739,0,4728,-16124,508,-984,148,-13
1141,807,734,854,741,0,4768,-16160,592,-977,-14,-10
1144,802,726,848,731,0,4828,-16124,532,-996,-39,13
1147,803,735,861,741,0,5056,-16068,556,-959,139,22
1150,797,735,860,740,0,4952,-15780,652,-979,201,21
1153,800,739,854,739,0,4696,-15944,604,-1016,157,13
1156,800,735,854,738,0,4664,-16088,520,-963,0,9
1159,802,737,854,740,0,4764,-16052,544,-946,-178,22
1162,806,735,851,742,0,4828,-16104,688,-993,-22,-1
1165,803,735,855,739,0,4964,-16052,656,-961,141,13
1168,801,736,857,742,0,4780,-16016,612,-1028,55,16
1171,802,747,859,741,0,4768,-16228,496,-988,-73,27
1174,806,743,855,738,0,4756,-16172,492,-922,-54,126
1177,806,743,852,736,0,4756,-16132,736,-928,93,78
1180,801,741,852,739,0,4892,-16016,548,-973,135,103
1183,801,742,858,735,0,4744,-16180,464,-940,29,124
1186,799,743,854,736,0,4660,-16148,564,-881,23,142
1189,797,735,851,735,0,4756,-16140,536,-935,-63,152
1192,803,746,854,737,0,4772,-16012,400,-912,-139,137
1195,801,746,853,735,0,4932,-16104,804,-834,132,162
1198,793,742,857,735,0,4908,-16168,452,-878,60,165
1201,794,745,860,743,0,4924,-16036,592,-923,50,78
1204,795,742,859,746,0,4976,-15996,572,-954,36,79
1207,796,739,857,747,0,5016,-16116,548,-970,116,73
1210,797,746,861,741,0,5024,-16112,740,-891,155,116
1213,801,739,854,740,0,4988,-16092,664,-923,123,100
1216,795,740,852,736,0,4976,-15980,548,-959,9,75
1219,800,739,850,730,0,4916,-16024,492,-983,-49,94
1222,799,741,853,739,0,4772,-16056,704,-929,27,93
1225,784,739,852,741,0,4856,-15980,584,-938,-105,107
1228,800,740,853,742,0,4844,-16000,432,-928,-93,109
1231,801,739,857,742,0,5044,-16068,620,-861,14,174
1234,800,738,852,742,0,4964,-15912,436,-918,113,148
1237,794,736,851,747,0,4916,-15896,392,-863,134,131
1240,796,738,853,755,0,5040,-16064,396,-898,23,114
1243,799,731,855,746,0,5076,-15888,632,-915,94,149
1246,799,730,851,749,0,5092,-15976,520,-938,205,168
1249,791,731,854,750,0,4880,-15896,412,-1005,-31,88
1252,795,724,855,742,0,4844,-16096,448,-990,-117,102
1255,789,723,849,750,0,5012,-15956,552,-1020,47,103
1258,797,726,849,751,0,5044,-16120,368,-1000,138,119
1261,798,732,852,746,0,4924,-16080,508,-994,180,132
1264,799,729,854,740,0,4904,-16000,364,-999,65,163
1267,797,729,851,745,0,4948,-15992,508,-984,201,144
1270,795,726,850,743,0,4952,-16052,468,-960,250,163
1273,798,737,852,742,0,4632,-15908,544,-973,126,199
1276,794,733,853,740,0,4676,-15940,420,-1009,80,181
1279,799,732,854,739,0,4608,-16112,668,-933,-58,172
1282,798,739,849,742,0,4760,-16120,600,-967,-108,202
1285,800,735,854,743,0,4528,-16120,256,-1002,-20,192
1288,799,735,855,738,0,4748,-16116,672,-980,230,208
1291,821,732,853,742,0,4716,-15880,564,-1006,415,206
1294,802,737,851,743,0,4596,-16072,656,-979,369,212
1297,800,738,853,740,0,4740,-16116,584,-903,218,192
1300,801,741,848,739,0,4864,-16136,644,-955,191,146
1303,801,745,858,738,0,4728,-16204,680,-948,270,124
1306,805,744,853,741,0,4600,-16164,520,-959,299,121
1309,806,751,849,747,0,4384,-16156,496,-997,151,141
1312,804,752,858,743,0,4552,-16092,444,-994,176,174
1315,806,752,851,738,0,4436,-16252,456,-959,117,206
1318,805,752,855,739,0,4524,-16300,444,-916,21,199
1321,806,759,858,745,0,4596,-16096,544,-951,12,178
1324,803,767,858,739,0,4504,-16136,432,-944,96,202
1327,804,767,853,743,0,4472,-16272,436,-926,41,208
1330,806,756,858,739,0,4272,-16308,444,-926,68,139
1333,803,751,851,746,0,4420,-16424,336,-909,-5,86
1336,798,750,850,743,0,4508,-16268,576,-816,106,100
1339,799,743,856,737,0,4384,-16200,568,-794,94,123
1342,803,740,848,743,0,4388,-16244,208,-788,14,140
1345,803,737,851,746,0,4304,-16272,488,-733,9,151
1348,805,736,848,738,0,4432,-16208,560,-749,25,106
1351,801,739,853,744,0,4312,-16196,640,-830,-101,67
1354,791,734,848,748,0,4476,-16096,468,-871,-63,33
1357,800,743,851,750,0,4368,-16084,540,-892,-82,23
1360,802,749,847,747,0,4508,-15988,572,-859,15,89
1363,800,746,851,746,0,4396,-16092,468,-797,31,116
1366,797,738,848,741,0,4480,-15968,684,-834,64,84
1369,795,739,848,742,0,4472,-16044,388,-804,46,94
1372,799,740,848,743,0,4308,-16144,356,-745,14,50
1375,800,735,848,734,0,4544,-16040,612,-775,55,-10
1378,799,736,851,729,0,4460,-16248,464,-796,27,-54
1381,805,738,856,731,0,4440,-16220,620,-811,-61,-115
1384,818,735,852,735,0,4440,-16136,396,-873,-101,-159
1387,803,739,848,738,0,4476,-16052,768,-947,157,-226
1390,800,738,848,734,0,4504,-16204,528,-1011,172,-273
1393,811,752,855,729,0,4376,-16204,640,-1024,18,-296
1396,805,740,847,735,0,4560,-16208,368,-1048,-110,-272
1399,801,744,855,734,0,4600,-15984,532,-1089,9,-273
1402,800,745,857,736,0,4444,-16056,652,-1080,-76,-224
1405,804,741,861,737,0,4496,-16056,516,-1109,-121,-232
1408,810,748,854,727,0,4492,-15992,460,-1135,-299,-270
1411,802,739,850,728,0,4464,-15976,656,-1176,-292,-333
1414,803,740,853,729,0,4572,-16012,528,-1164,-215,-317
1417,810,742,855,736,0,4640,-16020,480,-1130,-145,-297
1420,810,740,852,731,0,4716,-15852,412,-1109,-67,-307
1423,806,743,849,737,0,4736,-15920,532,-1077,-3,-256
1426,832,748,859,740,0,4540,-15908,444,-1026,19,-247
1429,814,749,853,725,0,4620,-15976,500,-1011,-8,-245
1432,807,748,851,731,0,4608,-15848,496,-1033,-130,-228
1435,812,752,854,731,0,4656,-15912,468,-1032,-291,-252
1438,804,751,851,727,0,4596,-15912,512,-1092,-478,-275
1441,807,750,849,729,0,4648,-15928,496,-1091,-456,-296
1444,807,750,852,736,0,4860,-15968,484,-1091,-413,-292
1447,811,751,853,728,0,4840,-16008,444,-1045,-418,-301
1450,811,752,852,730,0,4752,-15948,376,-1026,-354,-266
1453,807,750,858,731,0,4800,-15996,376,-951,-255,-237
1456,802,752,850,738,0,4876,-15980,512,-905,-242,-225
1459,801,753,855,730,0,4788,-15976,444,-874,-258,-190
1462,797,752,848,731,0,4768,-16000,344,-841,-270,-197
1465,801,748,848,731,0,4740,-16144,436,-863,-352,-228
1468,805,752,851,737,0,4872,-16132,460,-833,-344,-214
1471,804,752,849,738,0,4764,-16164,436,-823,-350,-236
1474,801,752,848,735,0,4796,-16136,392,-797,-344,-223
1477,802,751,854,736,0,4824,-16196,424,-792,-305,-221
1480,799,744,853,730,0,4760,-16184,340,-756,-275,-236
1483,803,741,853,727,0,4796,-16176,400,-787,-234,-222
1486,799,757,850,736,0,4880,-16196,432,-772,-253,-226
1489,804,741,851,733,0,4864,-16260,340,-785,-272,-233
1492,800,737,849,730,0,4844,-16240,312,-772,-238,-240
1495,797,734,849,737,0,4940,-16244,280,-788,-282,-211
1498,798,738,851,738,0,4844,-16272,324,-782,-275,-231
1501,801,731,853,734,0,4888,-16196,332,-819,-283,-212
1504,799,743,849,731,0,4872,-16264,400,-794,-347,-169
1507,801,731,848,731,0,4984,-16216,452,-798,-350,-178
1510,799,734,850,729,0,5104,-16152,352,-806,-361,-183
1513,801,735,851,731,0,4976,-16204,472,-763,-331,-184
1516,817,727,851,731,0,4920,-16140,384,-770,-297,-174
1519,804,737,849,735,0,4972,-16236,432,-716,-329,-153
1522,800,731,848,737,0,4976,-16248,416,-732,-278,-105
1525,800,731,855,735,0,4972,-16180,352,-674,-288,-123
1528,803,733,851,726,0,4876,-16228,352,-642,-286,-105
1531,804,735,851,735,0,5016,-16140,304,-621,-303,-75
1534,805,737,853,735,0,4908,-16112,416,-591,-325,-51
1537,800,733,851,736,0,5096,-15984,456,-577,-333,-68
1540,807,734,854,736,0,5060,-16068,408,-531,-323,-57
1543,802,731,853,739,0,5092,-16200,388,-495,-301,-46
1546,804,735,853,736,0,5128,-16132,468,-507,-273,-55
1549,804,736,854,736,0,5280,-16088,332,-502,-249,-69
1552,811,732,854,742,0,5116,-16108,540,-497,-244,-34
1555,803,733,849,738,0,5172,-16004,672,-476,-211,-17
1558,803,737,854,736,0,5048,-15996,488,-479,-177,0
1561,800,722,858,737,0,5020,-16012,624,-462,-177,7
1564,796,727,848,738,0,5100,-15980,704,-510,-132,-11
1567,799,730,852,734,0,5044,-15852,692,-535,-117,-10
1570,799,734,851,737,0,5096,-16016,560,-557,-92,-31
1573,798,730,844,738,0,4996,-15896,588,-575,-41,-29
1576,794,731,854,740,0,5020,-15940,588,-614,-65,-30
1579,799,733,851,735,0,4960,-16052,672,-645,-120,-30
1582,795,729,849,736,0,4948,-16012,652,-650,-103,-15
1585,797,727,852,735,0,4872,-15976,636,-659,-148,4
1588,798,730,851,736,0,4900,-16040,788,-668,-169,-9
1591,799,738,853,759,0,4956,-15968,688,-704,-187,-24
1594,797,739,853,734,0,4960,-16012,736,-686,-173,-26
1597,799,739,855,735,0,4880,-16048,688,-659,-210,-15
1600,797,736,850,736,0,4820,-16104,664,-669,-191,-35
1603,795,739,855,738,0,4880,-16008,584,-614,-150,-19
1606,797,742,850,735,0,4860,-16108,736,-582,-119,-17
1609,798,739,855,737,0,4900,-16204,572,-563,-138,24
1612,795,740,854,735,0,4832,-16176,564,-530,-153,28
1615,795,723,851,738,0,4948,-16208,640,-552,-83,45
1618,793,736,850,743,0,5000,-16156,620,-533,-64,55
1621,797,733,853,739,0,5012,-16120,644,-546,-16,36
1624,784,737,849,742,0,4996,-16152,428,-565,33,47
1627,794,735,848,739,0,5032,-16136,544,-588,70,43
1630,795,732,855,741,0,4972,-16180,656,-601,103,38
1633,794,733,861,740,0,5052,-16156,576,-659,100,57
1636,802,734,857,743,0,4880,-16156,652,-671,171,27
1639,795,734,848,742,0,4976,-16108,680,-722,151,13
1642,800,737,853,737,0,4892,-16128,664,-788,173,3
1645,800,727,857,737,0,4884,-16040,616,-792,170,-17
1648,795,734,849,742,0,4724,-16028,636,-845,159,-14
1651,803,741,855,738,0,4788,-16028,668,-873,120,-38
1654,801,733,853,738,0,4648,-16072,800,-881,81,-31
1657,797,734,850,739,0,4724,-16108,552,-868,52,-26
1660,802,725,851,734,0,4668,-16008,768,-879,23,-8
1663,801,734,848,747,0,4684,-16060,808,-877,12,-42
1666,793,725,854,739,0,4716,-16060,756,-909,25,-42
1669,800,730,849,739,0,4784,-16108,840,-884,23,-26
1672,797,736,858,743,0,4736,-16132,756,-871,44,-8
1675,798,731,851,739,0,4700,-16020,724,-852,28,-5
1678,793,732,853,742,0,4728,-16040,696,-830,72,10
1681,795,730,854,745,0,4636,-16076,728,-802,150,30
1684,791,733,850,742,0,4536,-16100,752,-786,180,30
1687,794,732,851,751,0,4592,-15968,772,-808,199,54
1690,799,732,854,753,0,4696,-15932,828,-802,215,60
1693,792,736,850,749,0,4588,-16088,696,-801,236,45
1696,794,730,851,746,0,4564,-15988,688,-767,249,46
1699,798,733,849,750,0,4648,-15996,900,-782,250,49
1702,797,737,860,745,0,4744,-15996,740,-770,264,75
1705,799,738,853,749,0,4664,-15948,784,-782,300,72
1708,794,730,852,745,0,4688,-15976,868,-785,292,75
1711,801,736,855,727,0,4756,-15936,872,-828,286,53
1714,800,741,851,743,0,4664,-16008,884,-840,215,44
1717,804,743,854,746,0,4756,-16020,832,-841,286,66
1720,797,742,850,739,0,4656,-16016,776,-903,347,17
1723,795,737,853,746,0,4648,-16068,892,-937,335,-6
1726,795,735,854,740,0,4516,-15992,756,-962,254,-28
1729,798,736,851,737,0,4544,-16052,816,-975,297,-51
1732,795,746,850,743,0,4480,-16016,656,-986,279,-49
1735,798,749,854,739,0,4508,-15976,648,-1001,229,-57
1738,797,733,852,739,0,4516,-16044,752,-1004,144,-37
1741,794,736,853,741,0,4668,-16016,640,-1026,98,-58
1744,802,743,858,738,0,4664,-15908,624,-1047,74,-75
1747,799,743,848,743,0,4616,-15932,744,-1045,52,-57
1750,799,739,851,733,0,4664,-15960,852,-1041,-1,-73
1753,798,749,858,737,0,4572,-15896,660,-1013,1,-43
1756,807,752,851,741,0,4712,-15860,684,-976,22,-41
1759,794,751,851,739,0,4676,-15952,768,-960,29,-10
1762,805,750,854,737,0,4688,-15928,576,-915,45,-24
1765,802,768,859,741,0,4740,-15888,772,-897,63,-18
1768,802,748,851,735,0,4764,-15948,716,-936,94,-31
1771,805,752,859,738,0,4620,-16004,704,-958,188,-52
1774,809,752,851,738,0,4804,-15932,692,-986,253,-75
1777,802,746,855,731,0,4740,-15992,780,-1003,317,-82
1780,800,752,865,738,0,4632,-15944,604,-1074,332,-126
1783,810,766,864,735,0,4716,-16012,820,-1097,330,-116
1786,800,752,851,740,0,4768,-16116,832,-1126,281,-129
1789,806,752,853,733,0,4748,-16108,808,-1145,245,-143
1792,804,752,853,734,0,4712,-16112,796,-1185,222,-162
1795,800,765,855,735,0,4700,-16128,788,-1197,82,-165
1798,801,750,849,732,0,4632,-16132,808,-1230,24,-200
1801,801,749,854,735,0,4652,-16084,848,-1212,-28,-145
1804,801,753,850,738,0,4676,-16012,872,-1216,-90,-121
1807,801,748,854,735,0,4668,-16092,720,-1197,-197,-123
1810,802,747,859,739,0,4804,-15996,948,-1201,-242,-113
1813,802,750,853,737,0,4848,-16204,828,-1147,-219,-96
1816,801,743,851,743,0,4796,-16136,860,-1151,-173,-84
1819,807,748,868,735,0,4868,-15948,784,-1170,-158,-58
1822,803,743,850,739,0,4892,-16056,660,-1155,-24,-56
1825,799,745,850,740,0,4800,-16008,664,-1132,-35,-52
1828,803,745,851,738,0,4744,-15988,720,-1165,-55,-65
1831,801,752,853,741,0,4772,-16072,652,-1170,36,-82
1834,800,743,855,745,0,4672,-16052,608,-1202,87,-85
1837,803,745,851,743,0,4712,-16132,600,-1188,88,-109
1840,803,745,848,740,0,4644,-16168,632,-1217,29,-109
1843,806,742,849,741,0,4612,-16048,608,-1220,-38,-109
1846,803,747,848,742,0,4736,-16200,496,-1242,-60,-103
1849,795,730,849,739,0,4680,-16080,784,-1243,-56,-90
1852,801,746,849,743,0,4776,-16116,632,-1270,-79,-122
1855,800,746,855,740,0,4672,-16032,644,-1275,-120,-119
1858,794,749,849,737,0,4664,-16020,476,-1257,-187,-151
1861,798,743,858,740,0,4892,-16056,496,-1306,-200,-130
1864,802,749,858,736,0,4800,-15952,556,-1301,-155,-162
1867,803,750,854,736,0,4780,-15988,540,-1309,-135,-166
1870,801,741,855,737,0,4804,-15912,632,-1348,-150,-137
1873,799,742,851,734,0,4864,-16180,428,-1303,-157,-144
1876,801,745,851,742,0,4796,-16116,668,-1271,-183,-142
1879,807,740,855,738,0,4960,-16000,612,-1296,-179,-160
1882,800,739,856,735,0,4960,-16160,460,-1282,-129,-147
1885,803,739,855,733,0,4944,-16024,564,-1274,-93,-137
1888,805,739,852,735,0,5052,-16100,332,-1293,-108,-126
1891,794,739,853,734,0,4812,-16180,536,-1303,-75,-144
1894,806,745,854,737,0,4896,-16088,520,-1324,-93,-137
1897,803,747,851,736,0,4832,-16108,356,-1310,-120,-150
1900,803,733,848,735,0,4832,-16060,452,-1252,-142,-133
1903,814,735,857,737,0,4840,-16144,596,-1248,-154,-127
1906,803,745,855,733,0,4788,-16044,520,-1311,-128,-154
1909,802,743,854,733,0,4692,-16160,480,-1327,-185,-177
1912,794,751,858,721,0,4656,-16132,540,-1250,-145,-173
1915,803,746,854,734,0,4812,-16164,496,-1261,-139,-136
1918,811,745,851,736,0,4856,-16060,408,-1245,-143,-158
1921,807,746,858,737,0,4728,-16152,464,-1259,-152,-169
1924,803,750,855,734,0,4796,-16052,464,-1225,-184,-182
1927,802,747,854,738,0,4676,-16164,392,-1223,-214,-166
1930,800,746,859,734,0,4772,-16180,480,-1247,-169,-153
1933,802,746,851,738,0,4776,-16356,524,-1206,-198,-129
1936,800,745,854,735,0,4976,-16412,324,-1177,-170,-86
1939,797,743,855,737,0,4976,-16288,420,-1162,-100,-89
1942,800,743,853,744,0,4844,-16084,384,-1103,-90,-49
1945,813,745,855,739,0,4736,-16244,380,-1097,-197,-62
1948,795,738,854,742,0,4796,-16148,348,-1118,-207,-110
1951,794,741,849,738,0,4952,-16028,504,-1121,-4,-106
1954,794,746,853,740,0,4920,-16004,500,-1105,112,-120
1957,798,739,854,741,0,4788,-16040,508,-1104,125,-65
1960,790,742,854,737,0,4900,-15980,352,-1090,122,-78
1963,795,738,851,739,0,4812,-16200,344,-1068,137,-70
1966,797,739,848,739,0,4788,-16276,168,-1014,49,-60
1969,788,734,852,741,0,4640,-16192,368,-1028,33,-78
1972,791,734,849,739,0,4876,-16088,396,-1051,87,-77
1975,801,732,852,738,0,4580,-16024,352,-1010,-172,-69
1978,793,734,851,741,0,4708,-16084,460,-961,-211,-19
1981,801,731,858,739,0,4728,-15920,432,-984,-229,-27
1984,796,723,857,746,0,4788,-16112,388,-1045,-144,-80
1987,799,735,853,737,0,4796,-16028,460,-1042,-20,-120
1990,801,730,854,735,0,4780,-16000,488,-1046,150,-110
1993,799,734,849,737,0,4744,-16016,496,-995,134,-89
1996,788,731,853,738,0,4812,-16024,432,-969,158,-70
1999,799,734,851,737,0,4792,-16028,556,-926,200,-65
2002,803,730,851,738,0,4908,-16052,472,-902,229,-89
2005,800,734,849,738,0,4840,-16088,480,-891,188,-50
2008,799,739,855,736,0,4796,-16156,340,-899,92,-82
2011,801,734,854,737,0,4816,-16160,408,-917,31,-72
2014,801,746,859,735,0,4924,-16160,544,-938,27,-78
2017,801,747,853,737,0,4808,-16188,396,-919,-11,-62
2020,800,745,853,735,0,4948,-16120,380,-924,-13,-58
2023,802,742,859,733,0,4896,-16104,432,-948,-16,-50
2026,799,743,855,735,0,4952,-16160,520,-944,3,-56
2029,801,747,855,735,0,4948,-16028,452,-943,16,-71
2032,795,735,851,735,0,4888,-16128,496,-939,45,-65
2035,798,741,847,735,0,4888,-16084,492,-959,-21,-51
2038,802,738,850,735,0,4920,-16156,340,-922,-24,-71
2041,786,736,850,739,0,4964,-16208,504,-920,-58,-51
2044,798,751,848,743,0,4888,-16160,348,-919,-58,-37
2047,800,741,848,739,0,4860,-16168,544,-889,-57,-38
2050,795,736,853,741,0,5000,-16100,584,-903,3,-29
2053,802,743,853,735,0,4888,-16076,612,-880,-12,2
2056,798,741,850,738,0,4888,-16088,448,-883,-8,-7
2059,797,741,854,736,0,4800,-16080,684,-901,-31,-4
2062,792,742,854,738,0,4768,-15876,380,-869,31,21
2065,795,734,849,741,0,4780,-16004,528,-908,49,-37
2068,788,743,854,739,0,4804,-16128,680,-892,41,16
2071,795,726,849,739,0,4964,-16028,512,-873,42,14
2074,787,736,853,742,0,4884,-16032,656,-872,58,3
2077,789,729,857,742,0,4792,-16080,632,-874,84,-1
2080,796,731,855,734,0,4896,-16068,436,-890,77,20
2083,798,733,857,743,0,4812,-16012,668,-867,54,13
2086,799,729,858,743,0,4856,-16028,656,-883,33,-9
2089,799,734,853,738,0,4800,-16000,556,-912,52,-8
2092,801,731,850,739,0,4828,-15988,572,-924,105,-41
2095,798,736,853,739,0,4816,-16032,584,-949,41,-21
2098,785,735,853,738,0,4768,-16064,504,-994,85,-44
2101,797,735,853,738,0,4680,-16020,500,-983,77,-45
2104,800,736,853,739,0,4544,-16000,464,-1008,83,-50
2107,799,734,866,739,0,4632,-16148,488,-1036,89,-79
2110,799,737,851,737,0,4488,-16084,580,-1045,76,-86
2113,801,738,859,735,0,4532,-16160,608,-1059,7,-88
2116,807,740,849,737,0,4552,-16132,616,-1066,-2,-104
2119,805,742,851,738,0,4556,-16008,532,-1101,-17,-120
2122,806,747,854,736,0,4512,-16088,476,-1104,-50,-108
2125,794,745,851,738,0,4684,-16100,444,-1106,-36,-124
2128,797,740,849,737,0,4832,-16128,620,-1095,5,-105
2131,801,739,852,739,0,4800,-16028,404,-1099,65,-107
2134,797,739,851,742,0,4640,-16080,564,-1110,104,-126
2137,801,745,851,739,0,4616,-16084,432,-1095,51,-96
2140,799,738,850,737,0,4648,-16020,576,-1122,-99,-110
2143,801,745,854,726,0,4732,-16048,584,-992,74,-56
2146,797,743,854,737,0,4752,-15996,576,-1158,-9,-152
2149,795,742,853,739,0,4592,-15872,652,-1195,-285,-177
2152,801,738,853,743,0,4640,-16000,484,-1215,-418,-206
2155,797,738,854,739,0,4828,-15868,700,-1196,-231,-252
2158,795,736,849,743,0,4680,-15980,588,-1196,-226,-222
2161,797,741,854,741,0,4684,-15968,632,-1192,-270,-226
2164,796,734,853,738,0,4688,-16012,736,-1132,-226,-187
2167,803,739,853,743,0,4652,-16036,540,-1058,-110,-133
2170,796,737,851,738,0,4724,-15948,600,-1059,174,-190
2173,805,743,848,736,0,4688,-15908,512,-1133,90,-230
2176,799,741,848,742,0,4584,-15992,452,-1138,38,-219
2179,814,746,851,739,0,4612,-16052,440,-1116,99,-249
2182,806,742,851,738,0,4580,-16044,456,-1136,-35,-239
2185,800,743,855,733,0,4524,-16024,612,-1132,-15,-244
2188,801,743,854,721,0,4700,-16004,560,-1174,-35,-247
2191,802,745,855,735,0,4604,-16116,408,-1157,-97,-235
2194,801,743,858,735,0,4608,-16120,396,-1185,8,-262
2197,800,747,854,734,0,4676,-16000,532,-1255,2,-325
2200,791,739,857,734,0,4596,-16180,380,-1252,2,-322
2203,803,744,852,738,0,4556,-16024,384,-1283,-59,-311
2206,805,745,859,739,0,4780,-16020,468,-1262,-33,-313
2209,802,742,855,734,0,4852,-15992,384,-1283,-41,-303
2212,796,741,851,735,0,4680,-16248,488,-1203,-95,-251
2215,799,744,858,731,0,4624,-16184,452,-1191,-218,-255
2218,805,743,860,734,0,4724,-16212,248,-1185,-319,-265
2221,805,744,854,735,0,4736,-16164,500,-1147,-219,-221
2224,800,743,851,736,0,4868,-16060,516,-1134,-249,-188
2227,802,744,850,731,0,4864,-15968,440,-1082,-281,-187
2230,800,741,855,733,0,4936,-16032,516,-1071,-137,-169
2233,802,736,860,736,0,5032,-16052,408,-1096,-66,-188
2236,800,738,861,736,0,4980,-16116,468,-1056,12,-154
2239,801,752,853,733,0,4872,-16056,496,-1018,-49,-144
2242,798,752,851,736,0,4848,-16060,380,-1042,-41,-165
2245,805,751,854,736,0,4808,-16056,436,-1022,68,-189
2248,803,753,855,735,0,4952,-16180,396,-1050,61,-231
2251,802,756,851,743,0,4836,-16104,528,-1045,-73,-233
2254,803,754,851,735,0,4820,-16088,464,-1059,-164,-241
2257,806,752,849,737,0,4908,-16008,452,-1056,-76,-240
2260,807,749,856,734,0,4776,-15960,448,-1017,72,-280
2263,805,747,854,740,0,4676,-16060,412,-1035,-31,-269
2266,802,746,853,733,0,4640,-15904,480,-1055,-87,-300
2269,803,747,859,731,0,4712,-15972,528,-1063,-16,-303
2272,799,741,853,734,0,4628,-15904,384,-1048,-9,-295
2275,801,743,853,733,0,4732,-15832,580,-1089,-28,-295
2278,802,736,854,738,0,4788,-16020,560,-1084,-30,-316
2281,807,738,853,736,0,4856,-15980,368,-1119,-85,-291
2284,804,738,853,741,0,4596,-16076,252,-1121,-199,-319
2287,810,739,848,739,0,4736,-16176,348,-1045,-138,-291
2290,803,741,854,747,0,4940,-16144,376,-1084,-105,-291
2293,801,750,853,745,0,4768,-16212,132,-1100,-152,-296
2296,804,749,849,740,0,4868,-16232,328,-1114,-117,-330
2299,808,743,859,743,0,4748,-16208,324,-1156,-202,-347
2302,800,745,857,738,0,4828,-16188,584,-1140,-137,-347
2305,801,750,851,738,0,4848,-16120,384,-1095,-109,-374
2308,800,747,848,731,0,4824,-16160,560,-1131,-95,-367
2311,795,749,855,735,0,4756,-16096,516,-1125,-128,-371
2314,800,743,854,736,0,4792,-16156,416,-1107,-257,-344
2317,801,742,853,735,0,4956,-16060,396,-1108,-145,-356
2320,802,739,854,734,0,4752,-15992,532,-1107,-189,-322
2323,799,739,852,736,0,4848,-16036,500,-1121,-169,-364
2326,803,747,856,732,0,4796,-16204,368,-1062,-135,-346
2329,801,739,853,731,0,4812,-16168,396,-1069,-166,-375
2332,807,747,854,735,0,4824,-16096,188,-1085,-179,-360
2335,807,750,851,734,0,4784,-16132,568,-1111,-50,-387
2338,806,751,854,737,0,4716,-16072,292,-1075,-11,-388
2341,804,757,858,737,0,4696,-16024,344,-1084,-99,-376
2344,809,747,858,741,0,4680,-16044,396,-1124,-95,-390
2347,807,750,861,740,0,4816,-16084,260,-1108,26,-423
2350,806,743,851,734,0,4740,-15988,284,-1065,-34,-389
2353,805,746,853,732,0,4720,-15892,424,-1097,89,-443
2356,801,739,859,733,0,4836,-16028,260,-1139,237,-462
2359,798,740,855,735,0,4716,-15980,488,-1099,157,-438
2362,803,743,852,737,0,4840,-15996,344,-1097,95,-424
2365,799,734,859,737,0,4900,-16116,320,-1100,194,-439
2368,806,734,851,742,0,4952,-15960,352,-1114,75,-439
2371,801,741,856,738,0,4780,-16004,480,-1090,26,-424
2374,808,739,859,738,0,4852,-16080,392,-1080,-132,-420
2377,805,738,851,733,0,4820,-16096,344,-1068,-258,-423
2380,805,739,851,737,0,4936,-16144,316,-1021,-313,-412
2383,800,742,854,737,0,5004,-15916,416,-1000,-221,-396
2386,803,738,851,731,0,5060,-16020,288,-1006,-224,-418
2389,798,736,854,737,0,4920,-16076,228,-997,-224,-399
2392,800,742,855,736,0,4988,-16008,492,-967,-185,-373
2395,804,747,855,735,0,5044,-15928,484,-981,-159,-401
2398,807,747,858,734,0,5056,-15956,368,-1007,-18,-406
2401,803,747,857,733,0,4996,-15972,456,-959,-4,-399
2404,805,752,855,736,0,5028,-16004,388,-981,-88,-392
2407,802,741,857,734,0,4940,-15952,444,-969,-73,-420
2410,809,748,859,733,0,4924,-16084,364,-961,-122,-364
2413,807,745,850,734,0,4860,-16012,352,-923,-130,-315
2416,803,740,854,733,0,4988,-15984,324,-936,-33,-345
2419,802,741,854,733,0,5100,-16052,440,-899,-72,-306
2422,803,742,848,735,0,5056,-16040,468,-929,-172,-319
2425,806,737,855,729,0,5020,-16064,424,-945,-176,-319
2428,806,739,859,738,0,4948,-16104,416,-881,-118,-284
2431,806,739,851,733,0,5072,-15972,424,-880,-220,-273
2434,803,742,858,735,0,5084,-16064,396,-906,-193,-245
2437,805,738,859,733,0,5120,-16036,316,-916,-139,-238
2440,803,746,855,749,0,5116,-16060,296,-885,-174,-206
2443,800,742,855,731,0,5260,-15896,400,-919,-174,-201
2446,805,749,855,733,0,5232,-15912,436,-899,-106,-183
2449,800,752,857,735,0,5288,-16056,388,-854,-47,-159
2452,801,743,851,739,0,5268,-16040,432,-822,-41,-125
2455,802,738,857,733,0,5308,-15868,404,-814,-67,-105
2458,801,738,853,736,0,5264,-16020,532,-820,-74,-115
2461,817,738,855,745,0,5316,-16020,416,-754,-156,-86
2464,803,735,850,741,0,5332,-15852,480,-792,-125,-76
2467,800,732,858,735,0,5280,-15924,500,-833,-133,-68
2470,798,733,854,735,0,5376,-15800,628,-838,-111,-94
2473,801,735,851,735,0,5300,-15852,496,-866,-88,-77
2476,800,733,850,739,0,5336,-15984,480,-844,-127,-53
2479,802,737,858,741,0,5400,-15936,532,-875,-125,-45
2482,790,728,853,737,0,5460,-15876,444,-894,-49,-61
2485,802,742,859,743,0,5412,-15740,624,-876,11,-72
2488,802,741,857,737,0,5240,-15908,592,-934,-22,-33
2491,800,744,861,737,0,5308,-15904,408,-922,-71,-46
2494,801,745,853,738,0,5432,-16012,572,-907,-13,-30
2497,799,743,857,737,0,5288,-15960,556,-909,28,-36
2500,800,743,852,737,0,5236,-15992,564,-897,14,-4
2503,816,747,854,737,0,5264,-16012,512,-921,-17,-17
2506,799,746,860,739,0,5296,-15912,668,-933,-31,9
2509,801,743,853,747,0,5240,-16044,444,-913,-13,10
2512,795,739,851,739,0,5180,-16016,324,-929,-33,51
2515,801,739,857,740,0,5156,-16016,448,-928,-66,26
2518,802,734,855,739,0,5204,-16052,440,-946,-75,59
2521,795,738,858,740,0,5216,-16084,564,-944,-87,46
2524,802,737,862,740,0,5140,-16092,480,-996,-46,49
2527,797,732,855,741,0,5224,-16144,528,-1017,-80,36
2530,797,733,853,748,0,5264,-16092,676,-1013,-87,53
2533,797,734,858,743,0,5172,-16100,532,-1017,-69,66
2536,793,731,851,742,0,5272,-16020,564,-1032,-30,71
2539,793,736,855,742,0,5056,-15988,580,-1018,-36,103
2542,793,730,851,751,0,5080,-16132,564,-1024,-42,123
2545,791,734,854,748,0,5232,-16028,508,-1045,-25,118
2548,791,733,853,746,0,5132,-16036,636,-1032,36,121
2551,795,731,850,750,0,5212,-15984,612,-1043,30,115
2554,795,735,858,744,0,5080,-16064,540,-1072,38,125
2557,791,729,849,747,0,5172,-15996,468,-1073,45,89
2560,797,736,853,742,0,5000,-15984,496,-1074,60,100
2563,795,734,857,745,0,5032,-15992,688,-1081,94,130
2566,794,736,849,750,0,5028,-15992,468,-1079,85,127
2569,797,738,853,748,0,5108,-15960,584,-1079,127,113
2572,793,741,850,743,0,5072,-15996,448,-1097,132,141
2575,793,743,857,743,0,4956,-16000,476,-1075,146,126
2578,793,737,859,746,0,5048,-16056,340,-1084,142,139
2581,793,738,855,743,0,4912,-15880,396,-1080,110,118
2584,795,740,859,747,0,4920,-15988,364,-1094,79,126
2587,803,736,855,745,0,4924,-15984,344,-1109,59,113
2590,799,736,851,745,0,4952,-16032,284,-1098,47,97
2593,793,729,854,749,0,4944,-15988,228,-1116,46,93
2596,791,736,851,742,0,4836,-16052,388,-1128,67,108
2599,791,734,857,747,0,4824,-15952,348,-1113,85,119
2602,799,736,850,742,0,4812,-16008,352,-1109,110,115
2605,794,736,853,749,0,4796,-15924,384,-1116,157,111
2608,797,740,852,745,0,4756,-16024,420,-1096,146,114
2611,794,737,856,745,0,4824,-15896,436,-1106,158,147
2614,795,739,880,741,0,4788,-15940,376,-1064,159,101
2617,787,735,849,751,0,4828,-15960,492,-1067,155,112
2620,794,730,859,743,0,4776,-16004,568,-1056,114,108
2623,798,733,855,743,0,4856,-15972,468,-1043,128,91
2626,800,727,852,741,0,4736,-15932,416,-1025,111,115
2629,801,733,856,742,0,4716,-15892,436,-1048,110,113
2632,800,731,855,747,0,4648,-16060,352,-1050,76,98
2635,800,726,855,741,0,4732,-16008,412,-1060,95,93
2638,798,727,854,743,0,4756,-15984,540,-1074,100,84
2641,799,733,856,745,0,4684,-15960,320,-1097,102,74
2644,806,741,853,742,0,4764,-15984,416,-1096,109,81
2647,798,739,850,738,0,4596,-16092,244,-1118,115,49
2650,801,742,851,741,0,4640,-15980,396,-1092,113,90
2653,801,745,858,737,0,4660,-16004,212,-1119,125,52
2656,800,750,859,741,0,4548,-16052,300,-1113,101,64
2659,801,750,853,743,0,4652,-16068,340,-1110,74,45
2662,798,750,858,736,0,4600,-16116,412,-1096,57,28
2665,801,749,862,741,0,4596,-16096,356,-1097,30,43
2668,799,749,858,738,0,4676,-16152,300,-1101,52,24
2671,803,747,857,736,0,4756,-16112,300,-1083,31,35
2674,798,746,869,736,0,4664,-16064,344,-1087,61,30
2677,799,739,851,739,0,4608,-16120,276,-1064,38,17
2680,797,738,855,742,0,4672,-16092,368,-1071,36,18
2683,796,742,854,738,0,4544,-16116,308,-1081,55,-2
2686,798,741,857,739,0,4696,-16092,252,-1067,42,-3
2689,799,742,851,740,0,4752,-15944,304,-1081,56,-19
2692,799,737,854,739,0,4636,-16072,256,-1062,33,2
2695,803,740,854,741,0,4768,-16076,332,-1055,56,-17
2698,800,740,855,737,0,4884,-15964,328,-1042,50,5
2701,801,737,850,738,0,4764,-16024,328,-1028,39,-24
2704,803,742,854,731,0,4812,-16020,208,-1007,64,-6
2707,801,727,855,734,0,4800,-16060,504,-980,68,-39
2710,802,739,850,735,0,4744,-15980,400,-984,28,-26
2713,809,734,857,735,0,4672,-16048,296,-964,72,-32
2716,803,732,855,733,0,4776,-16036,228,-972,53,-25
2719,803,734,858,738,0,4796,-16076,364,-949,34,-43
2722,807,745,850,736,0,4740,-16056,408,-954,39,-52
2725,806,745,857,734,0,4716,-16056,244,-961,15,-53
2728,802,743,855,746,0,4668,-16084,280,-966,8,-73
2731,809,749,857,731,0,4720,-16032,240,-972,-11,-78
2734,800,749,851,739,0,4824,-16040,184,-973,-2,-91
2737,801,752,850,737,0,4716,-16120,156,-991,-54,-80
2740,802,752,851,735,0,4864,-16092,236,-987,-61,-76
2743,802,751,858,732,0,4788,-16092,236,-988,-100,-92
2746,807,749,859,733,0,4832,-16108,248,-988,-60,-63
2749,799,747,855,735,0,4864,-16072,320,-968,-107,-89
2752,800,749,850,734,0,4816,-16104,292,-942,-89,-91
2755,799,742,855,733,0,4868,-16152,260,-942,-120,-92
2758,803,739,853,736,0,4848,-16132,116,-948,-125,-82
2761,788,739,859,737,0,4892,-16112,252,-921,-109,-85
2764,797,737,854,736,0,5028,-16112,208,-924,-92,-82
2767,797,741,851,739,0,5076,-16052,316,-906,-94,-67
2770,802,737,848,736,0,5064,-16132,308,-886,-54,-57
2773,799,743,851,738,0,5036,-16052,356,-864,-59,-76
2776,798,746,854,737,0,4972,-16060,500,-872,-56,-65
2779,799,748,852,738,0,5084,-16048,364,-852,-43,-53
2782,800,742,849,741,0,4940,-16000,352,-841,-19,-25
2785,800,743,851,738,0,4960,-16008,360,-807,-46,-27
2788,800,747,852,739,0,4888,-15952,312,-803,-12,-25
2791,802,738,851,740,0,4912,-15900,496,-793,-43,-34
2794,802,734,851,738,0,4920,-15912,336,-768,-50,-35
2797,802,735,854,737,0,5000,-15876,408,-781,-87,-21
2800,803,734,851,739,0,4796,-15848,500,-774,-100,-19
2803,805,737,854,736,0,4904,-15852,444,-775,-66,-50
2806,800,738,859,745,0,4904,-15964,508,-759,-90,-41
2809,803,740,854,738,0,4924,-15904,360,-804,-80,-55
2812,805,737,859,737,0,4820,-15956,352,-799,-69,-34
2815,801,739,850,737,0,4796,-16044,216,-769,-140,-73
2818,802,743,858,734,0,4956,-16024,200,-783,-148,-75
2821,804,749,859,732,0,4852,-16056,428,-808,-105,-64
2824,805,747,858,736,0,4972,-16056,392,-821,-121,-83
2827,804,752,857,733,0,5012,-16088,192,-837,-133,-69
2830,806,749,858,733,0,4908,-16148,136,-858,-180,-105
2833,806,750,859,733,0,5004,-16072,280,-868,-145,-90
2836,808,751,853,734,0,4964,-16228,256,-882,-182,-101
2839,802,749,859,735,0,4936,-16180,72,-886,-216,-93
2842,798,749,857,738,0,4916,-16180,288,-921,-212,-100
2845,803,749,860,735,0,5068,-16180,344,-904,-239,-107
2848,803,747,850,740,0,4996,-16292,232,-937,-232,-117
2851,795,748,854,735,0,5004,-16196,304,-896,-234,-105
2854,802,747,850,735,0,5048,-16180,216,-916,-229,-90
2857,799,746,853,742,0,4968,-16156,228,-906,-208,-99
2860,799,747,850,740,0,5064,-16192,188,-879,-229,-96
2863,802,746,857,741,0,4924,-16212,404,-877,-197,-82
2866,798,748,853,741,0,5024,-16140,224,-837,-187,-64
2869,813,745,852,743,0,4952,-16088,212,-847,-193,-77
2872,802,738,853,747,0,4940,-16124,332,-817,-172,-43
2875,799,738,848,739,0,4904,-16084,344,-793,-181,-64
2878,809,731,849,745,0,4920,-16036,288,-768,-160,-44
2881,798,730,854,741,0,4996,-16100,364,-784,-133,-27
2884,795,725,854,742,0,4916,-16076,440,-773,-133,-34
2887,797,726,855,746,0,4912,-15916,336,-745,-105,-24
2890,794,725,854,743,0,4992,-15988,216,-729,-101,-55
2893,791,721,857,747,0,4776,-15976,336,-698,-98,-7
2896,798,726,850,742,0,4868,-15952,512,-683,-86,-15
2899,795,724,851,742,0,4888,-15996,388,-663,-85,-27
2902,799,726,848,739,0,4856,-16004,336,-653,-90,-14
2905,796,730,850,745,0,4956,-15980,528,-651,-92,-1
2908,795,726,855,739,0,4816,-16008,452,-650,-113,-2
2911,806,733,854,736,0,4768,-15980,464,-647,-99,-4
2914,800,732,848,737,0,4812,-16016,420,-658,-103,-7
2917,797,735,855,733,0,4784,-15956,460,-648,-130,-29
2920,799,733,858,743,0,4860,-16048,628,-660,-136,-12
2923,800,737,860,733,0,4776,-16056,420,-685,-114,-31
2926,803,737,851,737,0,4828,-15988,356,-689,-124,-39
2929,800,732,855,737,0,4920,-16028,292,-704,-118,-45
2932,799,742,857,741,0,4760,-16052,344,-709,-104,-29
2935,804,735,848,740,0,4852,-16004,388,-715,-88,-38
2938,810,745,855,738,0,4796,-15968,392,-712,-125,-50
2941,805,749,855,737,0,4804,-16056,316,-738,-125,-66
2944,807,750,859,738,0,4872,-16052,404,-763,-155,-31
2947,803,751,849,736,0,4824,-16016,304,-786,-145,-60
2950,805,749,853,736,0,4932,-15956,356,-783,-134,-54
2953,807,752,857,735,0,4944,-15920,448,-785,-126,-38
2956,806,746,860,738,0,4888,-16012,468,-824,-139,-37
2959,805,749,860,746,0,4872,-16068,456,-826,-139,-30
2962,811,751,858,735,0,4824,-16092,420,-830,-138,-26
2965,805,759,855,737,0,4844,-16004,416,-835,-155,-46
2968,801,747,855,741,0,4800,-15956,436,-838,-183,-32
2971,801,747,859,737,0,4828,-15976,564,-856,-166,-22
2974,800,739,858,735,0,4912,-15912,496,-854,-156,-34
2977,801,738,854,737,0,4932,-15932,524,-814,-184,-20
2980,798,737,848,741,0,4860,-15904,520,-831,-175,-17
2983,801,734,850,737,0,4920,-15900,456,-818,-187,-27
2986,796,733,853,739,0,4908,-15936,452,-827,-172,3
2989,798,735,848,734,0,4852,-15920,520,-814,-149,-43
2992,797,733,851,735,0,4968,-15928,660,-804,-143,-22
2995,796,735,853,738,0,4916,-16024,548,-785,-110,-37
2998,798,732,855,738,0,4928,-16044,568,-809,-82,-44
3001,798,737,858,735,0,4832,-15932,548,-791,-74,-13
3004,801,741,855,737,0,4936,-16036,584,-821,-74,-22
3007,810,737,859,737,0,4912,-16020,508,-814,-80,-25
3010,803,738,863,735,0,4956,-15976,420,-813,-92,-27
3013,800,749,851,737,0,4848,-16052,380,-821,-55,-42
3016,799,743,855,738,0,4772,-16100,480,-825,-83,-35
3019,801,742,852,737,0,4840,-16072,352,-835,-61,-10
3022,806,739,858,737,0,4796,-16016,328,-832,-73,-30
3025,799,745,858,736,0,4916,-16076,520,-841,-85,-21
3028,802,745,858,741,0,4896,-16128,460,-856,-56,-35
3031,802,746,860,736,0,4928,-16172,420,-884,-113,-44
3034,798,752,854,738,0,4888,-16072,492,-887,-102,-28
3037,801,747,871,738,0,4984,-16124,412,-903,-104,-45
3040,805,747,857,738,0,4940,-16120,512,-915,-95,-39
3043,802,739,855,742,0,4924,-16220,408,-937,-104,-41
3046,799,760,858,735,0,5040,-16160,304,-951,-81,-30
3049,803,753,861,742,0,5052,-16236,244,-988,-62,-9
3052,794,751,857,741,0,5008,-16152,436,-988,-75,-35
3055,802,750,853,737,0,5008,-16108,476,-1011,-52,-20
3058,799,750,855,738,0,5120,-16160,400,-1008,-33,-26
3061,801,747,859,735,0,5100,-16052,276,-1025,-25,-53
3064,798,748,853,737,0,5096,-16048,324,-1006,-11,-41
3067,797,738,854,739,0,5068,-16128,488,-995,3,-55
3070,798,739,858,739,0,5016,-16092,524,-980,2,-32
3073,802,737,858,738,0,4972,-15980,348,-993,4,-25
3076,799,736,852,742,0,5092,-15972,484,-960,24,-36
3079,797,738,854,742,0,5024,-16064,476,-975,21,-37
3082,797,737,859,741,0,4936,-15960,344,-994,23,-57
3085,798,729,853,743,0,4956,-16076,376,-969,33,-49
3088,799,735,853,743,0,5072,-15976,480,-962,47,-55
3091,797,736,859,739,0,4920,-16012,336,-982,31,-42
3094,800,745,855,748,0,4952,-16032,412,-959,54,-65
3097,798,738,858,738,0,4972,-15876,400,-974,50,-53
3100,801,737,851,740,0,4960,-16000,508,-958,58,-45
3103,800,739,862,742,0,4924,-16008,404,-951,55,-76
3106,799,738,857,742,0,4932,-15916,488,-974,55,-32
3109,795,736,857,742,0,4876,-16000,416,-991,58,-81
3112,799,738,849,748,0,5020,-16088,424,-991,81,-35
3115,798,737,855,737,0,5068,-16060,516,-986,70,-18
3118,794,739,854,736,0,5012,-15964,492,-1003,94,-53
3121,795,750,854,748,0,4912,-16096,456,-1011,87,7
3124,797,739,856,742,0,4980,-16124,392,-1009,98,-3
3127,786,742,855,753,0,4932,-16008,444,-1022,100,-18
3130,796,741,861,741,0,5016,-15996,492,-1017,96,-1
3133,793,743,859,740,0,4972,-16144,384,-1043,125,-3
3136,817,739,854,743,0,5004,-16012,576,-1037,115,25
3139,794,737,857,736,0,4996,-16056,372,-1042,143,38
3142,795,742,855,735,0,4952,-16060,584,-1071,150,16
3145,797,750,860,734,0,4996,-16144,352,-1048,133,41
3148,796,748,862,737,0,5040,-15992,348,-1039,165,40
3151,798,747,859,742,0,4828,-16092,380,-1028,203,54
3154,795,752,854,743,0,4980,-16100,244,-1024,146,51
3157,800,752,855,746,0,4956,-16056,348,-1013,166,56
3160,791,752,854,737,0,4972,-16024,516,-1042,156,65
3163,789,751,851,737,0,4944,-16020,428,-1043,143,77
3166,792,751,854,746,0,4912,-16116,428,-1050,120,60
3169,795,747,860,736,0,4896,-16084,568,-1073,96,74
3172,794,741,851,737,0,4996,-16140,416,-1064,92,86
3175,790,750,859,738,0,5020,-16088,348,-1046,125,100
3178,790,749,856,741,0,5016,-15992,376,-1029,144,80
3181,787,743,851,750,0,5156,-16076,544,-1003,167,120
3184,787,739,851,749,0,5056,-16040,564,-989,104,100
3187,788,735,855,749,0,4880,-15944,400,-979,67,70
3190,795,735,854,750,0,5096,-15856,368,-971,65,78
3193,788,736,851,750,0,5088,-15892,592,-954,79,86
3196,784,726,867,743,0,5080,-15948,536,-941,98,86
3199,789,733,853,751,0,5076,-15960,420,-913,91,82
3202,790,731,848,752,0,5024,-15984,504,-917,101,82
3205,787,731,859,747,0,5092,-15896,412,-902,107,66
3208,791,729,853,746,0,4996,-15960,444,-907,107,64
3211,790,722,854,741,0,4988,-15888,488,-927,92,43
3214,790,730,853,746,0,5016,-15940,396,-921,77,62
3217,792,734,858,741,0,4952,-15944,516,-934,54,40
3220,799,732,858,733,0,4872,-15884,540,-943,94,66
3223,801,733,857,738,0,4960,-15816,420,-961,91,61
3226,799,733,858,733,0,4876,-15912,384,-1005,114,57
3229,799,733,855,735,0,4828,-15960,396,-1019,135,26
3232,793,733,858,741,0,4812,-15888,476,-1035,126,52
3235,797,731,855,741,0,4900,-16000,384,-1064,85,22
3238,795,736,851,739,0,4840,-15892,284,-1114,62,18
3241,791,730,857,749,0,4864,-16052,296,-1136,84,22
3244,789,732,855,747,0,4884,-16132,372,-1150,18,8
3247,789,729,859,745,0,4828,-16092,620,-1192,-37,8
3250,796,740,878,747,0,4900,-16196,332,-1236,-54,-10
3253,790,733,855,743,0,5100,-16164,424,-1273,102,-18
3256,790,732,853,743,0,5224,-16192,568,-1297,138,-16
3259,787,726,849,746,0,5104,-16168,276,-1323,100,-13
3262,791,726,855,746,0,4924,-16132,548,-1386,28,-12
3265,773,725,855,748,0,5004,-16188,504,-1364,11,-11
3268,790,724,854,743,0,5104,-16160,676,-1420,-18,-32
3271,799,720,853,740,0,5100,-16112,624,-1479,-18,-54
3274,787,720,853,748,0,5012,-16256,672,-1453,0,-37
3277,786,720,857,748,0,5080,-16080,816,-1356,-158,18
3280,752,717,858,749,0,4976,-16132,624,-1437,-319,-26
3283,783,720,852,756,0,5200,-16256,704,-1312,18,64
3286,790,718,854,751,0,5240,-15988,732,-1368,55,0
3289,784,715,857,752,0,5016,-16032,676,-1443,-59,-67
3292,785,715,853,753,0,5104,-16216,560,-1484,-184,-111
3295,775,721,857,755,0,5148,-16244,480,-1469,-68,-101
3298,790,719,859,764,0,5280,-16012,560,-1556,160,-177
3301,787,715,858,757,0,5264,-16220,576,-1549,188,-142
3304,792,711,861,752,0,5076,-16200,460,-1622,152,-193
3307,801,701,853,759,0,4972,-16424,340,-1580,79,-167
3310,789,706,853,762,0,5068,-16372,580,-1617,226,-171
3313,802,711,863,764,0,5140,-16368,428,-1651,133,-166
3316,784,714,863,769,0,5048,-16240,436,-1688,216,-183
3319,799,713,853,766,0,4956,-16300,272,-1645,135,-105
3322,797,713,858,769,0,5012,-16320,508,-1714,27,-128
3325,788,713,859,773,0,4924,-16200,736,-1756,-93,-139
3328,793,709,861,772,0,4884,-16092,572,-1699,4,-137
3331,790,713,854,774,0,5076,-16168,496,-1768,65,-148
3334,785,711,852,777,0,5040,-16216,560,-1801,12,-110
3337,793,711,855,773,0,5152,-16248,532,-1765,124,-127
3340,783,715,858,770,0,5020,-16272,496,-1788,291,-143
3343,793,723,853,763,0,5156,-16332,380,-1804,358,-178
3346,785,728,859,768,0,5224,-16444,424,-1753,419,-148
3349,787,731,859,762,0,5240,-16312,476,-1827,371,-183
3352,783,736,855,762,0,5044,-16280,436,-1826,330,-168
3355,778,736,853,765,0,5076,-16200,436,-1879,406,-229
3358,783,745,850,755,0,5120,-16116,532,-1837,321,-215
3361,791,738,855,754,0,4984,-15852,360,-1946,282,-232
3364,795,741,849,774,0,5068,-16032,280,-1973,370,-267
3367,791,747,862,737,0,5064,-16236,428,-1930,541,-289
3370,795,737,855,745,0,4916,-16012,428,-1939,372,-292
3373,790,733,854,737,0,4808,-16220,332,-1923,368,-327
3376,784,721,858,742,0,5116,-16052,548,-1952,578,-293
3379,784,713,851,742,0,5076,-16196,516,-1919,869,-318
3382,785,710,855,741,0,4876,-16228,480,-1920,626,-317
3385,794,704,848,743,0,4828,-16016,604,-1977,463,-366
3388,787,708,848,738,0,4732,-16180,400,-1996,524,-411
3391,785,710,854,750,0,4848,-16460,212,-2076,509,-467
3394,784,721,853,751,0,4756,-16252,316,-2048,423,-474
3397,798,723,850,756,0,4680,-16144,256,-2108,334,-536
3400,778,730,857,750,0,4648,-16336,124,-2134,570,-556
3403,784,728,848,752,0,4588,-16188,-168,-2150,258,-565
3406,784,722,853,746,0,4444,-16012,268,-2154,356,-626
3409,781,719,851,752,0,4504,-16032,212,-2219,449,-628
3412,778,730,853,751,0,4552,-16088,32,-2215,604,-682
3415,785,729,852,744,0,4524,-16064,208,-2302,700,-670
3418,801,726,851,743,0,4616,-15928,328,-2409,926,-750
3421,800,723,855,736,0,4472,-15684,244,-2504,1113,-795
3424,799,724,859,733,0,4724,-15580,528,-2555,1586,-882
3427,799,727,857,729,0,4396,-15648,64,-2622,1475,-925
3430,799,727,859,729,0,4392,-15776,464,-2591,1454,-957
3433,803,723,853,722,0,4404,-15916,344,-2747,1519,-1085
3436,803,733,862,720,0,4416,-16196,4,-2695,1534,-1120
3439,809,730,854,722,0,4484,-16228,200,-2604,1447,-1137
3442,812,734,855,727,0,4132,-16132,-4,-2486,1088,-1118
3445,801,731,858,726,0,4220,-15868,4,-2405,1037,-1171
3448,802,723,859,722,0,4072,-15856,20,-2258,695,-1164
3451,806,731,866,724,0,4280,-15828,176,-2167,422,-1208
3454,802,725,854,723,0,4308,-15972,160,-2149,355,-1232
3457,810,725,865,727,0,4308,-16016,-36,-2230,-46,-1252
3460,802,725,855,726,0,4336,-16056,-4,-2332,-271,-1374
3463,797,720,854,731,0,4460,-16068,104,-2413,-402,-1385
3466,801,709,860,734,0,4604,-16068,108,-2441,-408,-1350
3469,795,714,848,736,0,4708,-16096,12,-2520,-340,-1354
3472,791,709,853,738,0,4620,-15828,4,-2484,-292,-1355
3475,797,711,854,751,0,4904,-16224,180,-2550,-56,-1417
3478,791,704,853,737,0,4780,-16368,12,-2645,-244,-1451
3481,795,705,857,743,0,4872,-16216,256,-2783,-123,-1498
3484,801,691,853,736,0,4808,-16196,-116,-2964,-57,-1522
3487,791,715,848,741,0,4696,-16264,64,-3052,31,-1593
3490,795,720,854,736,0,4788,-16188,-28,-3059,440,-1559
3493,805,720,848,744,0,4732,-16008,-24,-3125,578,-1600
3496,787,719,848,741,0,4540,-16068,-240,-3261,644,-1677
3499,786,717,848,741,0,4456,-16076,-52,-3283,859,-1678
3502,785,720,849,742,0,4528,-15944,136,-3342,1145,-1710
3505,795,711,851,741,0,4144,-15932,68,-3340,1090,-1787
3508,791,710,848,740,0,4188,-15944,44,-3346,1156,-1870
3511,801,715,849,739,0,4244,-15948,-8,-3334,1144,-1950
3514,787,720,848,746,0,3980,-16068,-280,-3286,870,-2018
3517,807,718,854,742,0,4300,-15908,72,-3247,1061,-2097
3520,790,717,855,742,0,4336,-16044,36,-3232,1226,-2149
3523,798,727,850,746,0,4384,-16024,-104,-3218,928,-2188
3526,803,720,855,739,0,4456,-15920,148,-3378,1088,-2345
3529,801,734,853,735,0,4184,-16124,-64,-3284,709,-2401
3532,805,747,851,736,0,4356,-16196,-152,-3286,483,-2449
3535,816,731,850,727,0,4496,-16232,-16,-3234,457,-2488
3538,819,727,858,722,0,4692,-15996,4,-3359,652,-2629
3541,798,717,853,730,0,4768,-16156,-44,-3413,769,-2740
3544,816,739,858,737,0,4908,-16236,32,-3421,595,-2860
3547,815,737,851,749,0,4856,-16188,-172,-3389,389,-2910
3550,796,746,863,749,0,4980,-16252,-132,-3461,312,-3030
3553,800,736,855,749,0,4992,-16312,-244,-3564,463,-3124
3556,805,739,855,754,0,5040,-16252,-320,-3617,618,-3177
3559,799,734,862,743,0,5192,-16288,-244,-3797,805,-3261
3562,784,733,854,743,0,5076,-16280,-452,-3835,1033,-3255
3565,778,739,858,741,0,4988,-16132,-352,-3653,694,-3055
3568,786,743,850,749,0,4400,-15880,-468,-4104,765,-3438
3571,783,704,849,753,0,4684,-16044,188,-4106,305,-3545
3574,784,736,861,741,0,5888,-16032,212,-4299,1465,-3773
3577,795,736,854,748,0,5504,-16172,-152,-4247,1235,-3790
3580,855,742,859,754,0,4836,-16396,-160,-4211,935,-3767
3583,899,752,863,752,0,4612,-16288,60,-4479,854,-3887
3586,938,752,851,753,0,4652,-16420,-160,-4421,1182,-3849
3589,969,767,864,749,0,4768,-16076,92,-4533,1382,-3896
3592,959,767,870,738,0,4420,-16068,84,-4791,1572,-4003
3595,977,768,862,756,0,4104,-15896,4,-4874,1605,-4038
3598,976,783,867,755,0,3952,-15560,112,-4968,1295,-4031
3601,1003,771,862,771,0,3668,-15448,300,-5013,1042,-4224
3604,978,785,853,782,0,3620,-15168,-88,-5005,998,-4414
3607,976,802,870,767,0,3904,-15020,372,-4982,1533,-4757
3610,964,816,863,766,0,3384,-14824,224,-4831,985,-4993
3613,977,821,871,775,0,2968,-15024,-312,-4688,549,-5180
3616,997,844,848,779,0,3256,-14816,-604,-4604,795,-5468
3619,960,848,850,782,0,3560,-15136,-1016,-4223,1285,-5609
3622,969,851,861,784,0,3856,-15156,-1676,-4009,2195,-5817
3625,964,863,853,787,0,3764,-15412,-2088,-3482,2931,-5998
3628,990,866,860,793,0,3620,-15724,-3164,-2912,2737,-6114
3631,1069,880,855,803,0,3864,-16164,-4072,-2209,2596,-6389
3634,1095,882,875,798,0,4232,-16596,-4704,-1430,2458,-6671
3637,1072,877,855,827,0,4004,-17044,-5812,-965,2077,-6749
3640,1020,879,838,841,0,3716,-17088,-6200,-640,2915,-7088
3643,992,880,823,838,0,3848,-17940,-7020,30,3296,-6951
3646,1031,881,816,822,0,4424,-18684,-7276,534,3596,-6936
3649,1058,877,813,821,0,3872,-19184,-8576,765,3849,-7196
3652,1090,876,811,810,0,4472,-19612,-6584,488,3912,-7413
3655,1119,895,816,802,0,3816,-19804,-7620,384,2644,-7525
3658,1089,875,819,780,0,3348,-20376,-6264,652,2213,-7581
3661,1083,877,827,771,0,3292,-19792,-6196,156,1805,-7747
3664,1094,882,822,785,0,3668,-20604,-5384,-335,2272,-8073
3667,1097,916,831,771,3,3484,-19804,-4096,-812,2900,-8349
3670,1108,931,832,781,7,3344,-20344,-4228,-1009,2975,-8426
3673,1107,945,847,766,16,3072,-21004,-3644,-1166,2338,-8459
3676,1092,971,851,767,16,2960,-20316,-2960,-1609,1940,-8503
3679,1085,980,847,775,21,3108,-20320,-2816,-2041,1396,-8799
3682,1074,1000,862,783,17,3412,-20368,-2536,-2459,541,-8938
3685,1068,1007,864,782,48,4056,-20220,-2828,-3178,745,-9284
3688,1072,1001,848,810,48,4552,-19688,-1924,-3564,1648,-9725
3691,1067,946,853,810,53,4664,-19940,-1868,-3166,1848,-9677
3694,1040,894,852,830,43,4472,-19508,-1672,-3050,1481,-9680
3697,1043,843,875,837,87,4372,-19636,-1136,-3074,1162,-9723
3700,1115,785,912,839,126,4300,-19068,-1244,-2849,311,-9638
3703,1139,759,957,831,153,4148,-19284,-1124,-3181,-439,-9786
3706,1143,767,1023,821,200,4440,-17452,-1416,-3668,-287,-9901
3709,1136,802,1075,790,178,4764,-18376,-1144,-3604,-1181,-9789
3712,1125,853,1087,775,180,4112,-17636,-952,-3597,-2771,-9708
3715,1119,896,1066,766,205,4168,-17916,-1104,-3713,-3692,-9841
3718,1098,896,1023,758,199,5092,-17036,-1044,-4182,-4186,-10047
3721,1050,858,994,755,272,5540,-17564,-1596,-4119,-5049,-10101
3724,1008,817,986,755,272,5944,-17904,-1600,-4227,-5841,-10055
3727,958,784,976,723,285,6544,-18096,-1932,-4696,-6370,-10170
3730,918,779,975,715,265,7408,-18340,-1272,-5223,-6658,-10240
3733,834,816,993,702,271,7524,-17700,-1036,-5634,-7229,-10060
3736,752,853,1023,689,275,7504,-17888,-1212,-5873,-7415,-9869
3739,651,903,1040,692,263,8424,-17260,-1216,-5725,-7418,-9816
3742,587,946,1042,704,245,9180,-17228,-1964,-5392,-6342,-9635
3745,511,995,1022,710,258,9300,-16356,-1736,-5498,-6520,-9790
3748,476,1022,1018,713,303,9600,-16516,-1848,-5676,-7123,-9941
3751,464,1022,1017,704,287,9560,-16012,-1668,-5815,-7534,-10058
3754,465,1012,1039,709,309,9916,-16252,-1512,-5654,-6710,-10013
3757,462,1008,1043,707,303,9768,-16344,-1188,-5684,-6200,-10230
3760,464,977,1061,683,292,8896,-16560,-1284,-5952,-6294,-10357
3763,466,965,1034,666,299,8528,-16296,-2116,-6329,-5722,-10232
3766,471,928,1018,671,302,9156,-15752,-2676,-6674,-4817,-10077
3769,484,887,991,685,321,9528,-15492,-2300,-6832,-4306,-9979
3772,493,834,961,712,347,8896,-15476,-1680,-7108,-3891,-9832
3775,510,782,926,732,351,9080,-14988,-1352,-7592,-2912,-9527
3778,535,719,900,749,337,9012,-15172,-1132,-7618,-2208,-9156
3781,576,714,873,751,383,8748,-15176,-792,-7668,-1657,-9020
3784,598,717,849,762,375,8704,-15248,-1156,-7552,-1028,-8723
3787,628,750,841,768,381,8536,-14940,-1324,-7549,-689,-8407
3790,646,803,829,771,429,8640,-15160,-996,-7219,-671,-8395
3793,647,883,816,765,433,9216,-14796,-1556,-7003,-168,-8293
3796,631,921,822,773,423,9668,-16620,-924,-6344,-286,-8363
3799,598,960,815,782,448,11344,-13744,320,-5979,2707,-8408
3802,570,976,818,804,432,9528,-13912,-4528,-6750,4398,-7252
3805,541,966,831,828,423,7144,-14124,-3892,-7022,5706,-6050
3808,507,935,837,839,397,6052,-14456,-3456,-7099,6576,-5105
3811,495,896,848,833,400,6292,-14108,-3200,-7083,7286,-4427
3814,489,859,851,823,406,5920,-15404,-3428,-6715,7217,-3866
3817,487,807,860,815,417,5996,-15084,-2824,-6900,6958,-3701
3820,497,768,871,787,441,6440,-15288,-3084,-6882,6090,-3390
3823,503,720,881,784,462,6980,-15016,-2004,-7057,5196,-3455
3826,507,647,903,761,451,7932,-15416,-2040,-6716,4840,-3392
3829,507,561,933,745,448,8536,-15232,-1648,-6385,4564,-3497
3832,526,504,965,726,433,8764,-15720,-1740,-6045,4149,-3627
3835,525,488,999,710,413,9364,-15876,-1604,-5561,3910,-3734
3838,511,474,1023,704,418,9732,-16256,-1452,-5165,3643,-3989
3841,493,487,1055,705,399,10096,-16424,-1136,-4650,3778,-4417
3844,482,496,1072,721,382,10540,-16820,-1076,-3712,3675,-4889
3847,476,546,1093,720,355,11180,-16568,-960,-3129,3429,-5541
3850,474,586,1109,739,352,11744,-17300,-1600,-2322,2886,-6188
3853,467,611,1122,736,341,12256,-17012,-736,-1147,2611,-6655
3856,465,628,1132,727,332,12760,-16376,-696,-458,2177,-7313
3859,467,650,1136,745,320,13028,-15756,-616,173,1419,-7980
3862,462,697,1126,746,323,13124,-15312,-1224,468,673,-8736
3865,457,714,1133,746,361,13816,-15008,-1496,819,197,-9264
3868,459,705,1130,752,403,13836,-14416,-1556,907,-110,-9776
3871,462,699,1104,752,388,13824,-13680,-1504,1040,27,-9958
3874,462,674,1072,746,405,13772,-13692,-2088,995,235,-10136
3877,462,655,1045,738,394,13700,-13200,-2156,580,549,-10177
3880,464,649,1003,734,381,13564,-12940,-1980,248,1220,-10128
3883,471,622,973,720,353,13596,-12744,-1676,-138,1557,-10034
3886,475,600,944,714,338,13212,-13072,-2016,-597,1907,-9917
3889,477,631,915,703,338,12680,-13280,-2020,-982,1579,-9778
3892,476,656,892,697,318,12548,-13556,-2024,-1286,1219,-9587
3895,486,689,881,702,313,12556,-13812,-1536,-1784,1646,-9485
3898,505,698,862,699,308,12276,-13836,-1828,-2108,2266,-9484
3901,560,730,843,702,310,12176,-14360,-1988,-2116,2432,-9240
3904,602,722,853,703,307,11420,-14384,-2544,-2123,1955,-9077
3907,671,759,849,701,304,11456,-14560,-2632,-2101,2190,-8856
3910,747,785,849,693,284,11308,-14432,-2484,-2282,2032,-8725
3913,793,790,855,685,273,11056,-14616,-2496,-2577,1559,-8698
3916,849,765,848,685,257,11096,-15156,-2340,-2368,1062,-8450
3919,878,720,845,674,243,11232,-15088,-1736,-2346,1118,-8240
3922,858,667,847,679,226,11032,-14572,-1808,-2607,983,-8260
3925,866,623,865,688,214,11068,-14620,-1716,-2337,855,-8126
3928,849,612,874,704,197,11048,-14016,-1660,-2110,673,-7907
3931,829,594,897,720,180,11096,-14088,-1868,-1860,719,-7811
3934,816,581,922,743,179,11576,-13884,-1948,-1544,1397,-7715
3937,791,574,927,749,185,12144,-13732,-2160,-1328,2184,-7676
3940,767,566,937,752,172,12332,-13484,-2144,-1146,2625,-7746
3943,698,555,946,765,173,12596,-13140,-1816,-1016,3009,-7804
3946,645,571,948,763,175,12752,-12700,-1544,-867,3402,-7834
3949,605,557,959,781,174,12856,-12700,-1712,-440,3373,-7797
3952,553,539,978,775,184,13376,-12484,-1980,-334,3411,-7889
3955,534,511,979,784,193,13748,-11676,-1676,-529,4124,-8187
3958,511,496,982,787,178,14316,-12020,-1684,-215,4747,-8194
3961,499,494,976,770,191,14224,-11652,-2032,-69,4315,-8181
3964,481,494,969,757,205,14040,-11724,-2512,-57,3677,-8346
3967,483,498,946,752,194,13968,-11404,-2036,-233,3563,-8687
3970,475,500,925,742,187,14256,-11296,-2136,-191,3746,-8849
3973,475,528,895,731,194,14576,-11064,-2112,-212,4307,-8975
3976,475,526,866,730,177,14476,-11076,-2620,-112,4403,-9095
3979,480,525,847,727,183,14404,-11364,-2536,-91,4746,-9212
3982,494,539,835,730,214,14696,-11020,-2992,-386,5107,-9455
3985,499,560,829,720,208,14328,-11068,-2708,-565,5226,-9678
3988,496,588,816,710,198,13940,-11140,-2752,-730,4920,-9873
3991,490,587,811,710,196,14128,-11132,-2664,-989,4742,-9980
3994,499,598,811,715,195,14128,-11372,-2808,-1268,4533,-10074
3997,511,597,803,707,177,14120,-11384,-2644,-1317,4025,-10110
4000,534,613,806,704,175,13752,-11372,-2232,-1615,3402,-10245
4003,538,622,806,702,170,13884,-11468,-2056,-1773,3024,-10335
4006,558,615,807,703,162,13908,-11492,-2040,-1918,2498,-10332
4009,571,603,807,704,148,14076,-11204,-2004,-1906,2246,-10309
4012,592,591,799,715,167,13768,-11220,-1832,-1987,2099,-10342
4015,597,571,795,718,190,13916,-11216,-1680,-2025,2027,-10330
4018,609,545,802,719,193,13804,-11080,-1492,-2009,2040,-10240
4021,615,511,799,719,211,13796,-11120,-1468,-1878,2149,-10131
4024,642,506,790,721,195,13484,-11404,-1716,-1818,2110,-10068
4027,656,507,803,706,197,13472,-11440,-1616,-1796,2168,-9924
4030,677,511,806,705,210,13592,-11384,-1480,-1870,2021,-9845
4033,680,543,810,703,208,13464,-11324,-1352,-1855,1986,-9736
4036,687,563,811,713,235,13200,-11424,-1540,-1744,1626,-9652
4039,698,586,807,701,240,13392,-11324,-1660,-1852,1851,-9636
4042,680,597,809,722,236,13264,-11300,-1812,-1822,1693,-9589
4045,677,603,811,733,240,13196,-11448,-2028,-1830,1583,-9552
4048,658,592,816,737,236,13172,-11204,-1768,-1835,1808,-9537
4051,645,585,806,724,231,13088,-11256,-1540,-1771,1665,-9467
4054,638,581,807,725,221,13032,-11064,-1672,-1764,1713,-9395
4057,649,576,807,719,208,13324,-10936,-1368,-1706,2301,-9373
4060,676,576,816,726,206,13124,-10876,-1500,-1499,2120,-9274
4063,719,575,799,741,193,12852,-10816,-1560,-1400,2078,-9325
4066,735,566,799,745,179,13052,-10768,-2080,-1284,1996,-9267
4069,745,561,803,753,177,12980,-10744,-1752,-1220,2024,-9267
4072,752,559,802,761,176,13568,-10752,-1504,-1038,2469,-9226
4075,755,562,794,759,171,12944,-10764,-2632,-1165,797,-9094
4078,763,560,802,758,160,13852,-10692,-1796,-1270,1461,-9265
4081,767,563,795,752,151,14056,-10788,-1236,-1052,1804,-9180
4084,748,550,796,754,153,14524,-10452,-1512,-1264,2257,-9105
4087,734,543,790,752,146,14240,-10312,-1344,-1380,2851,-9248
4090,711,533,790,750,148,14512,-10296,-1056,-1250,3382,-9300
4093,702,528,788,762,147,14736,-10396,-1132,-1349,3782,-9285
4096,701,528,789,776,143,15096,-10344,-1040,-1468,4665,-9386
4099,707,525,790,777,138,15064,-10568,-1448,-1395,4698,-9312
4102,715,511,786,773,129,14844,-10688,-1312,-1574,4551,-9489
4105,715,523,793,775,123,14400,-10848,-812,-1509,4398,-9493
4108,713,532,791,767,128,14704,-10628,-1144,-1764,3843,-9525
4111,703,533,789,768,124,14580,-10464,-992,-2006,3590,-9621
4114,685,529,784,770,113,14512,-10616,-1020,-1985,3353,-9663
4117,671,528,784,782,109,14540,-10480,-1172,-2221,3271,-9711
4120,654,526,783,786,101,14508,-10384,-1236,-2272,3683,-9796
4123,639,511,781,789,90,14580,-10104,-1236,-2105,4181,-9708
4126,631,525,781,775,82,14336,-9996,-1268,-1942,4807,-9681
4129,631,511,782,784,92,13952,-9972,-1708,-1640,4714,-9553
4132,638,511,781,781,84,13676,-9792,-1408,-1497,4566,-9505
4135,647,511,780,784,79,13564,-9868,-1320,-1385,4717,-9516
4138,650,523,781,785,68,13476,-9852,-1600,-1138,4762,-9472
4141,661,526,782,777,79,12968,-9832,-1348,-1003,4114,-9531
4144,677,530,784,773,67,12688,-10168,-1028,-611,3515,-9491
4147,690,537,782,779,64,13248,-10052,-1168,-582,3373,-9523
4150,711,546,784,782,69,13276,-10020,-1292,-560,3116,-9616
4153,730,555,784,772,71,13236,-10124,-1172,-392,2501,-9564
4156,745,561,784,771,71,13196,-9920,-1392,-257,2057,-9540
4159,757,576,784,774,67,13188,-9824,-1096,-372,2065,-9588
4162,775,579,784,782,63,13648,-9800,-972,-562,2315,-9636
4165,784,587,789,767,64,13952,-9788,-1200,-471,2752,-9632
4168,795,592,785,784,57,13964,-9792,-460,-321,3126,-9562
4171,805,617,783,794,73,13492,-9676,-640,-106,2982,-9353
4174,814,610,784,805,77,13900,-9508,-848,-131,3096,-9291
4177,830,619,789,802,70,13792,-9332,-768,-310,3129,-9313
4180,837,627,787,814,64,14124,-9256,-472,-293,3614,-9235
4183,846,627,781,812,61,13896,-9040,-576,-134,3801,-9110
4186,858,664,805,813,53,13796,-8824,-568,-154,3804,-9071
4189,870,624,787,816,48,14208,-8988,-712,-208,4238,-8978
4192,880,624,790,815,49,14396,-8632,-496,-144,4513,-8916
4195,895,625,782,824,52,14208,-8424,-884,-270,4818,-8968
4198,901,624,784,823,54,14308,-8448,-1080,-91,5107,-8998
4201,891,633,788,832,49,14520,-8256,-1160,70,5394,-8965
4204,877,649,785,836,51,14988,-8104,-1376,352,5040,-8812
4207,862,663,787,848,48,14188,-8160,-2460,-198,5250,-9280
4210,859,678,785,855,54,14720,-8328,-500,119,6410,-9421
4213,847,683,785,859,51,14228,-8476,-1272,456,5577,-9141
4216,843,669,787,855,48,14428,-8000,-668,414,5079,-9135
4219,859,683,784,861,57,14720,-7920,-384,520,4924,-8887
4222,877,672,785,850,49,14724,-7716,-1132,308,5070,-8959
4225,894,666,785,848,51,14216,-7976,-1328,322,4524,-8892
4228,887,656,781,857,75,14080,-7676,-948,175,5102,-9065
4231,883,634,784,836,68,13752,-7736,-1076,118,4470,-9017
4234,892,623,786,843,69,13980,-7348,-812,-151,3970,-9089
4237,879,610,786,851,81,13384,-7512,-1052,-164,4165,-9046
4240,864,605,785,859,90,13196,-7392,-580,-305,3807,-9116
4243,873,595,782,865,89,12868,-7404,-960,-515,3314,-9047
4246,871,592,785,848,80,13208,-7332,-456,-508,3352,-8988
4249,867,594,789,847,85,13004,-7392,-656,-420,3077,-8876
4252,859,596,788,838,97,12960,-7296,-408,-541,3299,-8954
4255,847,595,790,848,109,13300,-7276,-576,-360,3407,-9017
4258,837,596,789,854,109,13652,-7236,-552,-270,3435,-8988
4261,836,602,809,854,97,13868,-7380,-508,-309,3379,-9056
4264,832,595,800,861,114,13800,-7472,-584,-201,3254,-8976
4267,827,603,798,863,128,13992,-7348,-604,-48,3147,-8797
4270,829,594,791,865,130,14484,-7152,-212,-126,3639,-8773
4273,827,597,797,870,125,14728,-7016,-348,15,3928,-8651
4276,807,606,793,878,123,14776,-7052,-440,-9,4311,-8654
4279,791,617,810,877,126,15008,-7036,-384,239,4207,-8524
4282,769,622,810,867,137,15012,-7100,-412,385,4094,-8439
4285,749,617,807,860,139,14960,-7024,-248,466,3953,-8361
4288,736,593,818,858,144,15400,-7028,-48,384,4140,-8294
4291,746,592,811,850,140,15364,-7124,-20,161,4639,-8341
4294,759,579,804,843,138,15240,-7496,52,118,4561,-8353
4297,763,587,804,852,135,14944,-8204,-300,448,4301,-8163
4300,770,592,812,858,130,14612,-7740,148,764,4212,-8031
4303,772,597,810,875,137,14104,-6688,-752,867,4017,-7941
4306,784,608,813,877,129,13992,-5948,-452,660,4094,-7993
4309,787,613,833,881,143,14176,-5660,-628,467,3659,-7956
4312,803,611,848,880,139,13952,-5648,-508,327,3776,-8277
4315,816,623,863,871,128,14116,-5744,80,329,3681,-8250
4318,816,629,880,880,130,13804,-6104,44,406,3383,-8163
4321,817,640,848,886,149,13968,-5836,552,488,3392,-8077
4324,818,639,847,893,160,13520,-5880,312,539,2898,-8097
4327,822,650,839,885,167,13092,-5468,-788,160,2546,-8131
4330,821,647,847,883,192,13668,-5084,-532,-162,3153,-8274
4333,830,641,851,869,209,13788,-5580,-572,-64,3851,-8254
4336,824,656,869,866,208,13600,-5260,-1048,-173,4153,-8318
4339,832,660,887,848,230,14132,-5100,-928,-63,4987,-8244
4342,815,671,910,832,245,14356,-4732,-444,-505,6444,-8633
4345,809,673,937,791,251,13720,-5160,-92,-254,6092,-8522
4348,810,677,959,769,253,13840,-5096,-720,-178,5687,-8422
4351,818,672,983,732,254,13792,-5396,-204,-262,5352,-8390
4354,833,657,1006,726,296,13708,-5828,-280,-560,4864,-8402
4357,843,631,1008,732,329,14448,-6104,-140,-639,5663,-8368
4360,880,590,1007,734,368,14532,-6436,28,-828,5804,-8390
4363,865,567,1008,745,402,14304,-6508,188,-1083,6161,-8334
4366,863,563,1009,756,397,14384,-6772,-52,-1075,5950,-8224
4369,896,570,1009,763,385,14304,-6804,-408,-1399,5499,-8122
4372,966,576,1019,773,400,14704,-7152,824,-1143,5991,-7968
4375,979,576,1023,762,395,14348,-7260,292,-1245,4646,-7848
4378,988,598,1034,786,398,14628,-6984,176,-1335,4608,-7846
4381,1054,592,1040,781,392,15504,-7164,768,-973,5111,-7715
4384,1095,586,1040,832,384,15476,-6892,-8,-800,5309,-7669
4387,1039,578,1023,814,351,15668,-6900,-448,-565,5284,-7614
4390,976,576,1018,847,364,15556,-6560,436,-418,5033,-7641
4393,933,574,1009,867,350,16300,-6184,32,137,5598,-7634
4396,893,574,1008,899,337,15212,-6044,-436,417,5079,-7647
4399,896,580,1010,900,336,15372,-5232,88,554,4857,-7714
4402,851,577,1005,914,351,15160,-5216,748,863,4696,-7860
4405,843,547,995,960,336,14368,-4368,1108,1063,4014,-7806
4408,832,554,989,962,321,15104,-3448,1096,1351,4230,-7789
4411,823,586,992,944,313,14420,-2464,796,528,4080,-8195
4414,750,560,977,958,320,14244,-2772,1344,74,4444,-8543
4417,799,562,963,978,327,13796,-3088,2024,120,3914,-8573
4420,807,568,977,991,335,13828,-3080,2128,135,3399,-8408
4423,816,622,991,999,321,13376,-2460,2364,-236,2259,-8631
4426,715,615,981,975,315,12680,-3036,2808,-103,1350,-8553
4429,775,567,973,978,323,12800,-3252,2560,-309,570,-8496
4432,767,543,993,944,320,13472,-3308,3028,-165,78,-8109
4435,769,574,982,960,338,12936,-3400,2468,-593,-1149,-7993
4438,781,647,998,963,328,12800,-3828,2532,-797,-1612,-7815
4441,764,714,973,961,322,14388,-3672,3076,-1256,-998,-7846
4444,754,806,960,947,309,14148,-3824,3628,-1790,-654,-7927
4447,783,798,950,907,305,15008,-4428,3276,-1445,889,-7553
4450,789,777,933,878,304,13736,-5404,3352,-998,1679,-7202
4453,763,783,925,842,302,13996,-5404,2712,-912,1791,-6844
4456,784,752,918,794,286,13320,-5468,2896,-1351,1387,-6977
4459,807,691,912,749,288,13892,-5692,4764,-1202,1629,-6933
4462,800,698,908,718,289,14364,-5284,3928,-2002,1670,-7662
4465,846,699,896,667,290,11944,-6440,6244,-2113,598,-7709
4468,798,693,880,621,286,13032,-5188,1776,-2392,2046,-8087
4471,887,687,853,599,305,15192,-5956,6376,-105,7352,-6685
4474,921,679,845,560,336,13368,-5184,3616,-270,6674,-6713
4477,947,688,834,527,345,12892,-4812,4068,458,7482,-6681
4480,944,698,835,495,335,12936,-4256,3916,1139,6084,-6529
4483,979,688,832,471,336,13252,-3852,3600,1155,4411,-6562
4486,1012,683,831,464,320,13188,-3628,4176,1058,3933,-6899
4489,1040,688,830,465,317,13388,-4068,3612,1722,3994,-6432
4492,1054,710,826,470,305,14772,-3788,3552,2384,4448,-5957
4495,1041,720,831,485,304,14196,-3740,3196,2740,4870,-5531
4498,1037,735,826,496,306,14472,-3652,3032,3312,6335,-5091
4501,1041,726,817,511,317,14540,-3384,2928,3774,6840,-4604
4504,998,723,816,525,320,14420,-2756,1608,3782,6882,-4178
4507,958,720,817,577,314,14320,-2156,1864,3519,7423,-4218
4510,950,731,835,615,304,15136,-2136,1204,4057,9046,-3615
4513,927,736,832,653,304,14620,-1528,264,3982,8297,-3511
4516,912,753,837,688,304,14640,-1564,-260,3204,7641,-3436
4519,944,771,838,714,304,14316,-1356,-504,2905,7175,-3505
4522,894,768,842,747,291,15032,-604,104,2562,6805,-3555
4525,870,748,839,774,289,14392,-532,60,2518,5437,-3323
4528,861,747,849,784,303,14868,-504,164,2203,4919,-3321
4531,865,726,871,800,297,15404,-380,604,2263,4757,-3075
4534,879,725,885,833,292,16076,-100,796,1619,4518,-3339
4537,880,719,895,855,288,16064,-128,632,845,3602,-3580
4540,902,714,901,868,283,16040,-108,948,367,2879,-3642
4543,907,714,903,877,277,16344,-32,680,-140,2385,-3808
4546,926,713,910,878,285,16184,-8,688,-864,1389,-4053
4549,927,704,911,885,286,16032,-104,1032,-1312,919,-4102
4552,919,690,907,891,283,16268,-244,1524,-1687,590,-4234
4555,927,705,907,902,281,16728,-212,2220,-1821,785,-4316
4558,927,723,912,887,279,16720,-100,2448,-2181,773,-4426
4561,931,731,918,875,299,16228,-592,2872,-1766,216,-4684
4564,939,756,897,859,303,16804,-804,3372,-1331,1032,-4759
4567,942,736,912,837,320,16992,-52,2468,-1585,879,-5263
4570,934,731,928,816,313,17064,-336,2604,-1087,1575,-5486
4573,919,741,921,784,304,17300,-172,1896,-1764,1226,-5946
4576,926,738,912,755,299,16760,-904,3416,-2069,2020,-5753
4579,930,715,905,750,307,14872,-856,3004,-2918,1094,-4808
4582,945,708,896,725,304,16260,-1088,3456,-2574,1017,-4864
4585,953,687,887,704,293,16128,-1156,3616,-2690,587,-4617
4588,973,681,885,682,288,16432,-1264,4396,-2432,819,-4367
4591,976,704,880,663,282,16872,-1276,4364,-2220,1158,-4143
4594,982,673,881,640,272,16840,-1496,4540,-2025,1147,-4005
4597,979,672,880,619,271,17528,-1852,4292,-1794,1141,-3781
4600,971,643,865,609,272,17896,-2116,4080,-1748,1364,-3739
4603,961,634,857,617,259,17752,-2456,4032,-1785,1706,-3742
4606,945,626,845,626,256,17696,-2940,3620,-1652,1675,-3489
4609,953,634,839,624,251,17472,-2972,3408,-1652,1907,-3324
4612,953,653,832,622,250,17240,-3176,3516,-1526,2351,-3154
4615,954,682,832,626,242,16768,-3188,3364,-1314,2277,-3015
4618,945,697,829,627,243,16884,-3028,3456,-1235,1961,-2975
4621,929,718,832,629,244,16992,-2780,4116,-988,2462,-2845
4624,914,736,832,633,245,16948,-2680,4004,-839,2785,-2888
4627,909,725,826,636,241,16836,-2600,3936,-507,3271,-2708
4630,908,746,822,637,234,16816,-2196,3556,-359,3124,-2746
4633,911,743,826,626,234,16396,-2196,3608,-15,3112,-2604
4636,903,763,824,613,240,16708,-1932,3912,202,3102,-2580
4639,898,766,827,597,237,16644,-1824,3524,300,2695,-2488
4642,896,752,906,582,229,17116,-1812,3816,596,3212,-2270
4645,897,749,893,657,239,17608,-1380,3820,497,3723,-2307
4648,899,743,874,597,234,17156,-1060,3184,400,3369,-2314
4651,909,736,855,574,230,16940,-1036,3676,282,3496,-2309
4654,917,735,853,576,227,16748,-940,3712,256,3769,-2102
4657,905,722,850,590,221,17184,-808,3172,53,3813,-2023
4660,905,723,851,607,219,16408,-936,2988,-38,4113,-2059
4663,909,706,861,622,214,16656,-592,3164,-109,4230,-2104
4666,911,701,865,641,212,16288,-400,2716,-493,2686,-2149
4669,923,703,858,656,212,16672,-384,3584,-610,3389,-2382
4672,929,689,861,663,208,16048,-312,3368,-714,3188,-2407
4675,945,698,867,673,208,15852,-164,2564,-863,2630,-2449
4678,954,669,871,679,198,15612,-192,2860,-862,2590,-2398
4681,963,670,860,688,195,16236,156,3304,-945,1902,-2497
4684,965,679,867,682,198,16132,180,3388,-999,1563,-2601
4687,958,686,861,678,198,16580,348,3572,-1204,1310,-2775
4690,954,686,864,676,197,16348,168,3600,-1145,716,-2908
4693,951,693,862,662,193,16408,112,3660,-1124,801,-2970
4696,953,691,854,640,185,17244,368,3760,-1025,1832,-2928
4699,947,704,848,609,192,17224,-8,4076,-1324,1497,-2965
4702,949,705,848,581,189,17304,-256,3832,-1309,1569,-2890
4705,944,695,840,562,192,17028,-412,4184,-1478,1208,-2784
4708,945,690,837,561,192,17384,-676,4312,-1712,577,-2712
4711,961,699,832,562,194,17792,-724,4540,-1829,1390,-2680
4714,933,693,837,571,195,17600,-776,4168,-1998,1797,-2573
4717,922,688,833,564,195,17196,-624,4060,-2101,1846,-2430
4720,917,690,832,567,209,17156,-480,4032,-2104,2160,-2264
4723,909,696,823,565,198,16660,-692,4148,-2159,2015,-2169
4726,903,695,835,571,203,16764,-632,4068,-2153,2201,-2109
4729,892,705,833,575,197,16392,-748,3964,-2032,2586,-1905
4732,899,719,834,575,196,16040,-896,3696,-2171,2353,-1914
4735,896,720,832,576,198,16232,-940,3756,-1966,2327,-1798
4738,894,715,832,583,201,16256,-868,3968,-1999,2103,-1671
4741,895,711,835,585,192,16348,-876,4188,-1922,2124,-1543
4744,898,718,852,574,193,16296,-984,4488,-1885,2211,-1502
4747,898,708,848,572,186,16676,-1124,4556,-1877,2342,-1429
4750,903,710,849,576,187,16556,-1124,4268,-1856,2056,-1373
4753,898,709,861,585,186,16616,-1080,4176,-1650,2017,-1165
4756,896,710,851,599,186,16808,-1104,4384,-1752,2077,-1096
4759,905,716,857,614,183,16636,-976,4372,-1889,1918,-1114
4762,905,723,858,631,187,16524,-1088,4032,-1997,1957,-1154
4765,906,730,861,646,183,16560,-1044,4224,-2131,1973,-1209
4768,903,734,865,657,186,16604,-944,3972,-2151,1755,-1061
4771,911,749,871,660,180,16648,-1012,4024,-2010,1656,-872
4774,910,753,866,671,177,16924,-876,3744,-2271,1735,-923
4777,904,751,859,688,176,16904,-1232,3812,-2281,1777,-786
4780,911,756,854,702,177,16460,-1220,3440,-2305,1548,-809
4783,896,739,859,708,176,16484,-1340,3596,-2427,1301,-813
4786,894,723,865,711,179,16564,-1452,3648,-2374,1200,-774
4789,905,738,861,713,176,15896,-1416,3040,-2369,1241,-886
4792,880,734,874,714,176,16820,-1652,3424,-2188,878,-825
4795,880,743,869,715,176,16820,-1672,3040,-2104,626,-762
4798,880,736,855,720,176,16876,-1628,2960,-1914,846,-799
4801,885,738,861,725,176,16708,-1648,2928,-2118,830,-959
4804,891,731,853,720,171,16520,-1936,2688,-2057,529,-926
4807,895,729,859,727,171,16696,-1876,3164,-2069,589,-857
4810,905,718,861,735,172,16468,-1828,2820,-2012,449,-809
4813,912,720,880,727,176,16804,-1656,2964,-2012,550,-853
4816,913,707,869,704,175,16528,-1416,2900,-2030,-58,-989
4819,889,700,876,677,174,16612,-1404,2832,-1924,-171,-1001
4822,909,688,879,646,171,17112,-1572,3284,-1854,33,-995
4825,907,679,873,624,170,17204,-1760,3064,-1825,-77,-921
4828,911,679,861,606,171,17164,-1724,2976,-1753,49,-831
4831,907,686,861,599,175,17568,-1824,2900,-1791,324,-696
4834,912,701,858,582,176,17236,-1716,3012,-2081,194,-771
4837,925,705,861,566,178,17008,-1784,3384,-2164,157,-701
4840,926,707,858,565,171,17204,-1784,3604,-2239,319,-714
4843,915,699,861,569,170,16808,-1964,3692,-2284,3,-683
4846,911,700,861,537,179,16772,-1784,3864,-2384,-121,-697
4849,895,702,861,529,183,16800,-1804,4072,-2250,176,-635
4852,882,709,863,535,179,17016,-1696,4060,-2255,155,-577
4855,880,721,863,531,179,16812,-1708,4100,-2210,229,-496
4858,881,737,874,527,178,16732,-1800,4140,-2215,218,-368
4861,881,743,860,533,179,16748,-1680,3952,-2279,202,-306
4864,890,743,863,528,176,16804,-1624,4240,-2175,378,-268
4867,890,722,865,543,183,16740,-1572,4092,-1968,396,-195
4870,895,720,871,556,176,16780,-1640,4188,-1748,378,-74
4873,895,695,861,564,174,16896,-1728,4156,-1644,417,-8
4876,897,689,867,571,173,16880,-1880,3956,-1567,463,33
4879,895,686,867,576,172,16964,-1792,3876,-1559,366,17
4882,907,670,871,578,173,17104,-2156,3984,-1564,414,3
4885,916,683,868,591,170,16608,-2036,4092,-1566,270,-47
4888,914,681,871,605,176,16524,-2064,3932,-1504,136,7
4891,918,688,870,597,170,16548,-2016,3936,-1460,5,24
4894,912,697,875,597,172,16568,-2056,3720,-1311,18,7
4897,908,703,873,609,171,16556,-2116,3484,-1198,-106,29
4900,897,716,874,609,176,16576,-2056,3272,-1081,-250,21
4903,890,718,871,617,176,16616,-2164,3512,-1009,-344,45
4906,883,723,867,619,176,16756,-2036,3432,-941,-320,49
4909,881,720,878,626,175,16672,-2256,3236,-894,-319,17
4912,881,734,871,621,183,16732,-2300,3180,-712,-339,135
4915,880,717,873,606,185,16644,-1860,3184,-1008,-224,-68
4918,873,725,875,597,193,16680,-2076,2812,-891,-377,-42
4921,874,735,869,589,185,16780,-1940,2780,-934,-438,-43
4924,869,656,876,596,185,17468,-1736,2704,-849,-52,-105
4927,879,752,866,608,185,16956,-1628,2740,-898,-46,-199
4930,880,695,867,625,181,16824,-1692,2544,-919,-162,-220
4933,890,689,869,606,182,16796,-1536,2452,-989,-90,-260
4936,903,697,872,595,180,16976,-1456,2608,-1121,-75,-293
4939,902,700,866,592,176,17404,-1404,2680,-1016,-9,-199
4942,911,699,871,583,176,16888,-1424,3104,-1332,-4,-389
4945,912,702,860,576,175,17188,-1580,2692,-1327,-179,-384
4948,920,705,869,583,176,17220,-1536,2948,-1513,146,-520
4951,923,711,870,563,176,17216,-1876,3012,-1541,228,-557
4954,926,713,870,559,170,16912,-1944,2964,-1510,-75,-516
4957,934,718,878,551,170,17144,-1984,3288,-1506,75,-610
4960,931,717,876,551,172,16880,-2008,3112,-1468,-109,-619
4963,944,720,882,543,170,17068,-1936,3364,-1527,99,-691
4966,940,720,880,529,171,16876,-1928,3556,-1413,-94,-756
4969,923,733,870,529,162,16824,-2156,3596,-1227,-354,-721
4972,912,723,870,532,167,16480,-2092,3884,-1215,-245,-821
4975,905,727,870,528,162,17072,-2292,3624,-919,-375,-678
4978,895,722,864,524,176,16712,-2448,4076,-675,-590,-567
4981,895,723,869,511,170,16752,-2468,3872,-573,-659,-591
4984,893,718,865,511,163,17200,-2624,3848,-471,-319,-488
4987,897,707,867,511,162,17060,-2680,3848,-439,-507,-440
4990,887,704,870,509,160,17044,-2748,3832,-386,-506,-365
4993,895,704,874,501,156,17068,-2888,3904,-215,-577,-145
4996,896,704,875,511,163,16864,-2868,4140,-132,-555,-80
4999,892,710,880,511,165,16896,-2652,3976,-87,-681,5
5002,907,704,882,511,162,16964,-2544,3972,-93,-818,50
5005,882,702,857,509,162,17176,-2608,3784,-41,-540,97
5008,880,704,870,529,166,17452,-2388,3688,113,-398,280
5011,881,714,869,543,163,17048,-2356,3976,120,23,235
5014,884,710,865,528,157,17276,-2308,3708,188,-292,404
5017,890,715,859,525,155,17208,-2316,3728,176,-329,447
5020,890,718,858,541,158,17448,-2128,3588,230,-36,423
5023,887,713,857,539,159,17448,-2124,3696,174,-8,364
5026,880,711,853,531,157,17336,-2048,3616,91,-33,313
5029,880,721,847,546,160,17484,-1960,3632,61,188,255
5032,880,733,854,550,152,17440,-1760,3524,11,277,227
5035,864,737,849,561,151,17252,-1572,3656,-31,359,193
5038,862,737,850,574,158,17112,-1568,3452,-39,343,209
5041,862,741,848,579,159,17140,-1432,3544,-96,461,147
5044,869,729,846,576,163,16916,-1216,3604,-256,419,134
5047,867,722,854,569,163,17020,-1224,3592,-391,357,119
5050,869,713,862,576,163,16836,-1104,3672,-481,301,113
5053,866,707,863,579,166,16852,-1032,3608,-481,205,190
5056,864,697,866,593,163,16736,-1124,3536,-501,-123,293
5059,871,697,869,606,162,17228,-872,3788,-617,215,211
5062,879,697,873,609,160,16996,-980,3440,-740,264,176
5065,880,695,868,619,158,17100,-904,3080,-835,159,89
5068,880,702,864,615,160,17072,-1004,3152,-853,217,147
5071,881,704,865,619,156,17052,-1152,3216,-923,238,89
5074,881,713,862,624,154,16912,-1428,3084,-916,75,120
5077,881,718,858,630,157,17032,-1576,3112,-976,106,48
5080,895,720,855,635,152,17172,-1484,3104,-1082,101,-18
5083,896,719,854,625,155,16932,-1540,2924,-1102,-13,-115
5086,902,720,853,616,152,17000,-1624,2916,-1109,-169,-175
5089,903,720,849,609,151,17024,-1656,2924,-1048,-94,-205
5092,906,722,854,607,146,16904,-1860,3168,-1062,-40,-285
5095,901,726,857,604,150,16912,-1908,3116,-1102,-340,-285
5098,895,715,859,585,147,17096,-1860,3512,-1171,-312,-357
5101,894,730,859,580,155,17196,-1796,3660,-1271,-216,-393
5104,891,723,862,576,151,17016,-1852,3580,-1303,-194,-439
5107,887,720,861,575,159,17056,-1892,3564,-1307,-258,-419
5110,885,711,859,573,156,17024,-1828,3552,-1281,-243,-384
5113,891,718,855,575,151,17036,-1724,3728,-1271,-231,-357
5116,893,717,861,569,151,17076,-1696,3660,-1332,-199,-323
5119,895,710,863,561,153,17132,-1808,3696,-1377,-192,-348
5122,897,710,858,558,153,17128,-1896,3812,-1406,-197,-297
5125,899,710,864,559,149,17040,-1852,3952,-1389,-120,-247
5128,891,715,861,564,151,17008,-1988,4080,-1356,-89,-188
5131,903,720,861,569,149,17120,-1964,3852,-1367,-87,-161
5134,898,720,855,576,148,17160,-2048,3752,-1338,-52,-134
5137,902,716,859,584,151,17080,-1952,3780,-1296,0,-77
5140,898,713,853,598,145,17008,-2068,3616,-1271,29,-22
5143,899,699,858,596,144,17008,-2084,3604,-1191,42,2
5146,899,701,861,603,146,16748,-2104,3644,-1151,43,17
5149,896,701,857,611,143,17028,-2256,3516,-1060,30,57
5152,896,699,859,608,147,16948,-2356,3440,-1020,18,95
5155,895,694,863,606,144,16924,-2240,3404,-1044,7,89
5158,896,689,863,610,143,16908,-2404,3384,-1063,-71,136
5161,883,677,851,609,144,16872,-2484,3524,-1078,-105,101
5164,889,673,855,607,144,16804,-2412,3624,-1057,-131,183
5167,871,685,858,601,145,17048,-2292,3372,-976,14,156
5170,862,688,859,593,144,16624,-2296,3240,-872,-277,133
5173,863,694,859,577,145,16852,-2284,3160,-770,-248,187
5176,867,702,857,570,146,16868,-2244,3072,-693,-184,167
5179,870,709,849,565,142,16804,-2336,2880,-627,-217,211
5182,874,707,851,563,141,16852,-2276,2956,-592,-201,189
5185,879,706,853,563,144,16780,-2276,2916,-620,-252,206
5188,889,711,848,560,143,17052,-2308,3200,-658,-128,226
5191,881,720,850,562,148,16844,-2304,2924,-730,-145,205
5194,884,722,859,561,146,16784,-2264,2864,-688,-161,225
5197,880,725,868,561,144,16756,-2316,2856,-720,-149,228
5200,878,724,871,553,144,16936,-2220,2888,-738,-92,258
5203,878,718,865,549,144,16880,-2180,2712,-759,-66,241
5206,880,726,873,547,144,16896,-2312,2708,-784,-174,243
5209,884,727,865,546,143,16932,-2252,2936,-730,-295,260
5212,892,725,871,546,144,17136,-2276,2948,-808,-141,209
5215,895,721,867,546,146,17228,-2300,2964,-754,-7,198
5218,895,720,869,557,144,17064,-2320,2988,-730,-95,175
5221,892,718,874,565,145,17068,-2436,2848,-743,-236,175
5224,887,713,867,555,144,17120,-2492,2876,-661,-110,183
5227,890,718,868,555,143,17052,-2672,2764,-494,-73,210
5230,890,718,865,560,143,16800,-2816,2928,-543,-178,198
5233,890,707,867,561,143,16700,-2892,2980,-425,-256,119
5236,897,717,866,570,144,17116,-2680,3088,-348,-1,59
5239,897,720,863,575,144,16804,-2856,3096,-311,-241,21
5242,913,707,864,577,143,16800,-2752,3380,-383,-571,39
5245,918,714,861,588,144,17088,-2740,3744,-265,-281,153
5248,911,703,859,592,144,16908,-2544,3652,-180,-254,208
5251,907,701,865,596,144,16948,-2496,3928,-102,-230,185
5254,895,704,863,607,144,16916,-2368,3876,-27,-288,191
5257,880,714,867,634,144,16940,-2300,3696,82,-270,186
5260,877,720,863,618,146,16888,-2268,3644,146,-248,227
5263,873,724,863,627,145,16948,-2140,3560,288,-212,286
5266,861,722,863,629,147,16452,-2072,3464,255,-467,220
5269,863,714,859,643,146,17208,-1948,3452,370,-490,335
5272,865,708,861,658,132,17028,-1868,3672,387,-319,367
5275,867,698,860,645,142,17424,-1804,3544,462,-275,434
5278,863,699,858,645,144,17240,-1832,3428,448,-270,384
5281,870,697,855,638,144,17428,-1688,3496,437,-91,343
5284,868,689,858,624,145,17280,-1776,3544,453,-85,355
5287,870,693,861,625,151,17232,-1812,3456,468,-35,360
5290,871,694,861,610,144,17244,-1688,3576,476,33,367
5293,879,695,857,610,144,17236,-1620,3496,506,-64,373
5296,878,701,858,609,144,17036,-1584,3412,437,-35,373
5299,874,705,861,605,144,17212,-1520,3284,329,123,374
5302,869,707,859,597,141,17072,-1412,3216,189,172,325
5305,869,706,854,604,144,17100,-1368,3296,-13,103,279
5308,871,710,857,609,143,17000,-1356,3208,-114,45,218
5311,874,715,855,607,143,16964,-1408,3412,-240,-36,211
5314,879,713,858,606,143,17104,-1352,3380,-391,-90,170
5317,879,715,860,609,144,17044,-1332,3048,-525,-146,173
5320,880,704,859,609,140,17168,-1348,3068,-604,-43,150
5323,880,706,861,610,144,17084,-1368,3012,-633,94,134
5326,877,695,862,606,144,17336,-1452,2920,-765,-52,103
5329,877,692,854,606,148,17172,-1472,3068,-888,3,51
5332,878,690,855,600,143,17116,-1504,3000,-995,23,12
5335,880,701,862,597,144,17100,-1688,3176,-1076,60,-20
5338,886,701,864,600,145,17060,-1728,3152,-1177,87,-81
5341,881,703,871,597,144,17084,-1780,3356,-1265,81,-143
5344,880,715,862,597,144,17112,-1840,3340,-1289,125,-167
5347,886,705,861,595,145,16956,-1964,3496,-1322,154,-177
5350,887,709,859,594,144,17068,-2052,3592,-1278,171,-181
5353,891,711,855,595,144,16928,-2056,3532,-1233,216,-188
5356,894,711,862,600,141,16940,-1976,3404,-1148,271,-195
5359,897,709,862,604,144,16952,-2144,3540,-1067,235,-191
5362,896,704,863,609,144,16976,-2008,3564,-1020,242,-181
5365,894,722,862,610,144,16872,-2128,3528,-921,163,-135
5368,893,726,859,611,143,17036,-2164,3584,-856,80,-121
5371,892,723,863,619,144,16932,-2092,3464,-780,183,-131
5374,891,729,862,619,142,16988,-2092,3628,-782,141,-138
5377,889,735,860,623,144,17076,-2136,3572,-766,101,-119
5380,892,733,861,625,145,16904,-2200,3672,-685,74,-97
5383,884,723,861,626,144,17036,-2196,3788,-575,70,-39
5386,883,720,861,635,143,16992,-2148,3644,-476,-42,-46
5389,880,715,855,640,141,17000,-2108,3888,-357,-23,-43
5392,874,709,875,641,143,17004,-2120,3808,-172,-69,20
5395,863,705,862,640,143,17212,-1996,3696,-305,21,27
5398,871,704,862,635,144,16732,-2128,3840,-205,6,65
5401,871,699,861,641,139,16780,-2072,3816,-235,-18,80
5404,871,688,854,643,139,16872,-1892,3612,-243,-63,106
5407,870,688,855,650,142,16848,-1864,3844,-226,-43,136
5410,870,688,859,643,144,16912,-1776,3912,-214,-67,173
5413,870,689,857,651,144,16932,-1836,3672,-231,-44,191
5416,856,692,860,646,144,16908,-1832,3564,-262,-42,177
5419,867,694,859,638,142,16924,-1856,3484,-296,-79,226
5422,871,697,860,639,141,17008,-1816,3372,-309,-50,215
5425,868,695,860,633,141,16968,-1700,3316,-338,-48,217
5428,869,688,861,631,144,17160,-1652,3208,-389,-67,179
5431,873,690,863,624,142,16976,-1656,3440,-480,-66,163
5434,877,693,861,621,134,17140,-1764,3372,-578,-14,133
5437,878,698,865,613,138,17196,-1532,3500,-642,27,108
5440,871,704,855,609,139,17244,-1716,3392,-740,53,74
5443,875,703,862,608,137,17228,-1572,3324,-814,85,79
5446,871,704,865,603,140,17168,-1600,3320,-917,103,18
5449,875,702,863,606,139,17048,-1608,3304,-1015,118,-13
5452,873,703,858,606,143,17184,-1616,3348,-1116,134,-53
5455,871,709,861,607,143,16988,-1716,3468,-1187,184,-76
5458,876,717,859,603,143,16992,-1656,3404,-1252,152,-84
5461,874,703,861,615,144,17000,-1664,3572,-1319,202,-111
5464,878,703,858,593,143,17012,-1496,3704,-1357,234,-122
5467,880,704,863,602,139,17056,-1624,3596,-1417,197,-117
5470,880,704,865,606,142,17040,-1656,3764,-1459,205,-131
5473,879,711,863,608,143,16992,-1716,3644,-1474,185,-129
5476,880,714,859,610,141,17092,-1696,3612,-1470,192,-122
5479,880,714,854,610,144,16944,-1824,3564,-1522,157,-174
5482,883,718,875,615,143,16952,-1872,3768,-1501,194,-176
5485,884,703,866,619,144,17024,-2008,3512,-1552,134,-193
5488,881,695,859,626,147,17052,-1948,3632,-1533,204,-206
5491,882,701,861,627,144,17052,-1984,3684,-1527,173,-211
5494,883,703,855,632,141,16912,-1996,3516,-1525,162,-200
5497,885,703,862,638,144,16964,-2120,3848,-1538,150,-187
5500,890,705,864,639,145,16912,-2104,3748,-1546,129,-190
5503,885,706,863,638,145,16824,-2116,3672,-1507,76,-198
5506,887,710,879,639,144,16824,-2068,3660,-1427,47,-187
5509,879,714,861,640,144,16908,-2120,3736,-1361,81,-141
5512,875,717,862,638,143,16964,-2200,3656,-1247,77,-156
5515,873,711,861,642,143,16924,-2240,3592,-1184,-18,-100
5518,880,708,866,639,142,16944,-2272,3712,-1068,-94,-86
5521,880,702,863,638,143,17516,-2140,3500,-1073,-29,19
5524,871,704,879,640,142,16644,-2236,3772,-1035,-77,-49
5527,871,694,862,638,144,16888,-2160,3688,-1050,-135,-1
5530,875,693,866,634,143,16840,-2116,3792,-1007,-82,37
5533,876,688,853,631,143,16984,-2140,3764,-958,-114,79
5793,883,710,863,669,1146,16952,-2044,3488,-670,-13,41
5797,896,709,867,670,1104,16940,-1972,3512,-658,-21,64
5800,902,704,863,674,1069,16824,-1952,3596,-695,-28,59
5803,880,691,859,657,1006,16784,-1992,3396,-666,-69,74
5806,878,688,855,661,962,16804,-2016,3724,-650,-101,64
5809,879,688,855,663,929,16712,-1924,3616,-638,-151,97
5812,876,686,858,657,893,16772,-2008,3444,-610,-178,104
5815,879,688,859,656,867,16796,-2052,3536,-561,-195,94
5818,876,688,859,658,837,16808,-1988,3368,-550,-208,118
5821,874,700,860,656,803,16712,-2020,3264,-516,-252,125
5824,880,689,861,656,775,16692,-2160,3464,-501,-286,165
5827,876,693,864,656,743,16876,-2308,3264,-474,-268,206
5830,877,691,857,659,721,16480,-2216,3360,-487,-330,197
5833,879,693,861,659,695,16576,-2260,3388,-466,-385,264
5836,875,692,869,657,674,16784,-2204,3472,-489,-423,261
5839,875,694,869,656,650,16668,-2272,3280,-538,-419,281
5842,890,704,873,653,634,16820,-2268,3128,-453,-438,359
5845,877,704,874,656,614,16588,-2204,3464,-477,-409,320
5848,870,711,875,655,593,16656,-2360,3252,-495,-456,337
5851,866,715,869,659,571,16776,-2224,3216,-464,-459,378
5854,866,720,874,657,559,16732,-2300,3284,-388,-416,439
5857,858,734,873,665,534,16548,-2240,3420,-379,-418,395
5860,851,743,874,658,511,16648,-2156,3228,-363,-518,383
5863,849,749,877,655,499,16648,-2216,3224,-380,-534,360
5866,848,753,879,655,490,16672,-2228,3360,-434,-533,352
5869,848,759,877,655,473,16724,-2216,3228,-450,-483,352
5872,867,752,874,656,463,16960,-2088,3400,-466,-457,344
5875,847,741,869,656,447,16784,-2140,3456,-482,-430,371
5878,849,734,873,659,432,16736,-2096,3552,-521,-435,376
5881,847,727,867,666,418,16792,-1944,3484,-583,-481,315
5884,851,720,867,668,406,16764,-2076,3544,-614,-475,340
5887,863,714,878,671,398,16792,-2040,3628,-615,-517,325
5890,858,717,869,661,385,16964,-1904,3524,-656,-495,338
5893,862,710,874,659,377,17032,-1904,3560,-660,-483,323
5896,864,705,871,661,371,17088,-1884,3444,-704,-530,326
5899,866,703,873,656,365,17068,-1856,3556,-735,-556,331
5902,863,698,868,652,348,17284,-1936,3608,-778,-512,333
5905,863,691,880,668,336,17200,-1880,3696,-838,-441,304
5908,864,695,874,656,332,17240,-2092,3524,-872,-551,319
5911,873,693,873,658,321,17376,-2004,3436,-865,-427,364
5914,873,692,871,658,317,17432,-2116,3552,-873,-432,334
5917,873,695,878,656,306,17408,-1988,3644,-912,-402,316
5920,874,702,871,650,303,17396,-2160,3568,-916,-400,300
5923,870,701,870,649,294,17448,-1996,3604,-915,-369,296
5926,870,704,874,646,294,17664,-2040,3732,-819,-274,272
5929,863,707,867,647,285,17528,-1972,3828,-817,-235,206
5932,859,715,867,645,277,17496,-2044,3672,-758,-205,182
5935,861,707,864,655,271,17412,-2108,3896,-763,-217,131
5938,857,715,863,656,267,17480,-2024,3828,-765,-152,136
5941,856,711,859,661,262,17536,-2060,4016,-824,-75,105
5944,858,711,863,666,259,17660,-1908,3936,-827,-10,107
5947,855,717,858,666,256,17436,-1892,3908,-842,-8,29
5950,866,704,862,672,246,17424,-1928,4012,-908,69,29
5953,853,704,855,676,240,17384,-1704,4076,-954,68,23
5956,854,704,854,670,239,17300,-1620,4092,-930,156,63
5959,856,701,857,672,235,17144,-1496,3868,-928,161,11
5962,855,699,862,670,231,17144,-1504,4072,-909,163,22
5965,848,691,854,673,226,17184,-1332,4024,-902,205,22
5968,855,691,855,673,225,17244,-1244,4044,-875,208,18
5971,859,688,858,678,223,17220,-1416,3868,-913,263,37
5974,875,690,859,682,215,17308,-1444,3868,-904,328,-9
5977,862,693,863,684,214,17084,-1444,3844,-910,288,-29
5980,863,693,853,675,208,17072,-1376,3848,-936,171,-46
5983,864,695,855,672,207,17272,-1440,3740,-967,259,-65
5986,865,698,852,670,205,17176,-1312,3724,-1018,315,-79
5989,873,705,853,676,205,17172,-1352,3568,-1044,314,-80
5992,871,703,857,677,206,17152,-1456,3504,-1097,341,-112
5995,874,708,851,671,206,17168,-1480,3488,-1100,326,-134
5998,886,714,854,674,202,17056,-1508,3580,-1156,334,-184
6001,885,718,853,677,195,17056,-1748,3384,-1225,316,-187
6004,877,724,857,677,194,17120,-1684,3404,-1283,364,-216
6007,872,726,866,673,190,16880,-1604,3420,-1336,345,-211
6010,876,724,853,671,192,17056,-1608,3380,-1403,352,-245
6013,874,720,857,667,189,16972,-1680,3264,-1457,348,-298
6016,874,720,854,662,183,17004,-1624,3220,-1497,313,-283
6019,873,719,857,665,179,16860,-1556,3352,-1549,320,-315
6022,871,720,864,666,177,16900,-1612,3208,-1602,312,-340
6025,875,720,858,660,176,16864,-1708,3092,-1661,287,-329
6028,879,716,855,660,175,16896,-1712,3280,-1726,211,-369
6031,875,711,859,656,177,16808,-1832,3260,-1833,141,-362
6034,877,709,862,656,173,16852,-1916,3464,-1891,106,-371
6037,879,713,863,643,175,16852,-1852,3416,-1924,47,-340
6040,880,711,865,651,175,16592,-2112,3420,-1898,-175,-267
6043,879,726,868,642,175,16920,-2168,3280,-1923,29,-349
6046,881,720,865,641,170,16884,-2152,3332,-1952,58,-397
6049,880,738,869,638,166,16992,-2316,3284,-2046,-63,-439
6052,886,717,862,627,165,16888,-2332,3460,-1980,-47,-371
6055,873,712,866,629,162,16844,-2392,3452,-1933,-16,-338
6058,880,707,863,635,163,16872,-2452,3572,-1901,-51,-328
6061,880,706,859,639,163,16940,-2360,3648,-1920,-51,-343
6064,880,704,855,645,165,16876,-2460,3524,-1882,-39,-336
6067,880,706,862,639,162,16896,-2424,3624,-1822,-40,-325
6070,880,703,858,653,163,16852,-2376,3564,-1697,-25,-274
6073,879,702,861,649,163,16920,-2464,3484,-1612,-58,-193
6076,878,703,853,655,158,16844,-2488,3600,-1530,-78,-200
6079,880,702,855,656,155,16876,-2412,3612,-1476,-38,-159
6082,881,699,861,656,155,16840,-2484,3584,-1427,-46,-148
6085,879,700,859,651,154,16840,-2480,3608,-1362,-52,-116
6088,876,691,859,656,156,16912,-2528,3708,-1340,-67,-97
6091,874,686,859,656,160,16972,-2496,3692,-1261,-47,-43
6094,865,668,858,655,155,16912,-2472,3540,-1162,-33,-18
6097,867,680,870,653,149,16912,-2448,3592,-1086,-2,8
6100,864,665,864,654,151,16900,-2412,3380,-1022,14,45
6103,865,675,857,654,150,16892,-2592,3364,-976,21,78
6106,873,674,871,652,149,16936,-2384,3344,-876,-14,94
6109,867,683,855,656,147,16844,-2436,3504,-837,-4,137
6112,855,687,863,655,147,16984,-2448,3280,-756,25,138
6115,865,694,862,656,145,16916,-2296,3340,-760,-29,170
6118,866,694,866,658,147,16908,-2312,3272,-775,2,169
6121,868,690,861,660,146,17044,-2244,3428,-777,-6,167
6124,869,689,863,665,146,17092,-2128,3380,-805,-31,171
6127,870,698,858,672,144,16988,-2244,3292,-834,-18,150
6130,866,704,851,669,144,16920,-2252,3196,-838,-28,153
6133,870,706,859,671,146,16952,-2164,3212,-848,-53,163
6136,869,720,861,671,146,16872,-2072,3224,-868,-78,133
6139,878,718,858,661,145,16896,-2080,3200,-827,-70,126
6142,870,720,855,659,144,17048,-2056,3140,-807,-70,112
6145,871,709,855,672,142,16980,-2052,3216,-823,-65,71
6148,873,725,853,656,143,16932,-2064,3240,-819,-62,57
6151,873,721,857,653,144,16916,-1984,3308,-827,-62,47
6154,877,720,855,647,142,16932,-1944,3288,-841,-58,31
6157,878,720,861,642,144,16960,-1992,3424,-846,-74,6
6160,881,703,865,646,143,17012,-1896,3276,-877,-119,21
6163,880,698,865,645,139,16944,-1904,3412,-843,-171,35
6166,880,693,863,649,144,16956,-1868,3280,-875,-196,18
6169,880,694,859,649,141,17128,-1844,3480,-915,-68,-23
6172,883,688,864,647,143,17052,-1828,3316,-909,-227,-16
6175,880,687,863,646,138,17064,-1976,3356,-921,-240,9
6178,881,685,862,649,144,17112,-1888,3444,-977,-142,33
6181,880,686,864,650,144,17184,-1912,3520,-1052,-177,23
6184,878,688,861,643,144,17192,-1896,3484,-1167,-220,51
6187,873,688,861,651,142,17184,-1872,3776,-1277,-198,33
6190,869,690,863,653,142,17192,-1884,3544,-1336,-173,24
6193,864,694,861,649,137,17232,-1868,3608,-1360,-120,44
6196,863,701,863,650,144,17124,-2004,3644,-1363,-81,31
6199,855,703,858,651,135,17064,-2076,3628,-1354,-6,52
6202,859,705,860,648,140,17068,-1980,3712,-1326,44,53
6205,848,707,857,649,143,17064,-2044,3648,-1325,172,-3
6208,857,715,858,650,140,16864,-2008,3500,-1259,179,-8
6211,853,721,851,640,140,16836,-2112,3408,-1188,94,32
6214,852,721,858,649,142,17068,-2136,3320,-1163,228,24
6217,855,721,858,645,139,16992,-2136,3464,-1152,303,-8
6220,854,721,859,643,135,16852,-2144,3436,-1174,168,-42
6223,853,721,855,643,140,16932,-2116,3600,-1184,224,-38
6226,854,720,861,647,135,16904,-2052,3732,-1162,273,-41
6229,855,719,858,650,141,16792,-2132,3392,-1172,268,-29
6232,866,705,858,656,142,16836,-2104,3616,-1171,205,-43
6235,864,702,860,656,144,16940,-2084,3576,-1183,229,-29
6238,883,703,855,655,138,17020,-1992,3504,-1143,203,-51
6241,865,699,859,652,139,16924,-2112,3624,-1143,176,-55
6244,874,698,859,651,135,16888,-2100,3556,-1122,165,-51
6247,873,697,854,655,143,16924,-2156,3588,-1112,134,-78
6250,874,702,858,657,138,16892,-2100,3376,-1108,107,-81
6253,876,702,850,660,135,17076,-2172,3228,-1105,73,-76
6256,874,699,858,659,135,16912,-2164,3400,-1098,63,-72
6259,873,708,853,674,143,16956,-2220,3316,-1142,33,-93
6262,869,706,860,667,134,16888,-2148,3244,-1089,21,-91
6265,876,705,866,669,141,16976,-2292,3424,-1115,-11,-92
6268,874,713,862,662,135,16952,-2224,3384,-1105,-27,-78
6271,869,717,857,663,143,16832,-2172,3360,-1083,-36,-78
6274,873,720,860,657,137,16976,-2124,3480,-1086,-49,-59
6277,867,723,859,656,134,16972,-2120,3344,-1095,-35,-47
6280,875,730,860,656,138,16844,-2208,3356,-1113,-119,-70
6283,867,725,857,649,137,16856,-2184,3448,-1125,-99,-43
6286,869,717,863,644,132,16904,-2260,3472,-1124,-145,-28
6289,863,710,853,649,133,16852,-2180,3576,-1126,-125,-32
6292,863,711,861,646,135,16876,-2280,3392,-1177,-139,-33
6295,864,717,866,642,141,16872,-2228,3384,-1142,-163,-35
6298,863,711,862,643,142,16868,-2216,3396,-1166,-128,-22
6301,860,711,862,641,139,16904,-2184,3436,-1149,-135,-12
6304,861,704,861,643,138,17020,-2172,3340,-1158,-120,-11
6307,861,702,859,642,139,16996,-2172,3436,-1107,-123,-35
6310,861,695,864,650,139,17068,-2124,3232,-1121,-91,-25
6313,862,694,863,645,135,17008,-2128,3428,-1088,-68,-32
6316,862,698,860,647,137,16948,-2112,3496,-1090,-64,-44
6319,859,698,865,646,138,16976,-2108,3420,-1091,-43,-30
6322,866,694,855,642,135,17124,-2048,3420,-1058,26,-58
6325,866,695,854,641,134,16996,-2180,3228,-1070,35,-68
6328,871,694,859,640,143,17080,-2148,3316,-1073,33,-75
6331,875,709,863,639,135,17096,-2188,3368,-1072,43,-73
6334,876,702,857,637,135,16992,-2088,3256,-1075,42,-84
6337,873,704,858,638,134,17044,-2084,3304,-1052,52,-92
6340,880,709,861,635,135,16968,-2148,3208,-1069,51,-95
6343,875,711,863,637,135,17092,-2272,3588,-1105,82,-117
6346,867,710,862,638,141,16952,-2352,3352,-1077,42,-130
6349,878,724,860,644,137,17048,-2340,3376,-1092,64,-128
6352,878,724,859,640,138,16996,-2404,3412,-1091,76,-138
6355,875,734,862,639,134,16928,-2340,3416,-1065,83,-126
6358,869,725,862,641,139,16936,-2292,3628,-1044,51,-92
6361,863,719,854,646,137,16892,-2348,3576,-991,12,-101
6364,860,703,864,647,134,17024,-2300,3484,-958,20,-83
6367,855,690,866,651,137,17012,-2244,3660,-902,14,-55
6370,859,687,862,650,140,17008,-2364,3540,-869,-30,-47
6373,848,688,862,652,139,16852,-2332,3596,-845,-37,-44
6376,857,685,867,652,135,16964,-2284,3596,-809,-23,-11
6379,853,685,867,655,142,17012,-2272,3628,-800,-19,-23
6382,855,688,861,656,138,17004,-2304,3472,-781,-17,1
6385,863,691,864,665,134,16988,-2284,3448,-756,-15,12
6388,861,695,855,659,135,16868,-2396,3528,-711,-28,17
6391,859,694,865,656,137,16960,-2352,3424,-659,-10,-13
6394,866,688,858,655,135,16864,-2348,3340,-617,8,23
6397,864,688,861,653,141,16888,-2416,3360,-563,-44,30
6400,876,688,861,655,140,16860,-2352,3324,-557,-32,34
6403,862,701,858,656,139,16888,-2368,3392,-513,-29,23
6406,869,704,859,656,141,16920,-2240,3460,-500,-43,41
6409,873,710,859,660,144,16984,-2344,3280,-482,-42,56
6412,871,709,855,656,137,16984,-2288,3240,-455,9,38
6415,870,718,859,655,138,16940,-2208,3256,-434,-12,37
6418,880,720,858,663,138,16828,-2228,3472,-431,2,49
6421,867,720,863,656,143,16980,-2240,3256,-389,35,83
6424,864,720,864,656,144,17080,-2176,3372,-365,70,42
6427,866,731,860,660,140,17060,-2124,3452,-368,46,43
6430,857,738,855,659,137,16924,-2100,3280,-390,44,39
6433,863,738,856,655,135,16904,-2124,3336,-393,54,49
6436,857,735,857,661,135,16988,-2052,3428,-424,69,57
6439,861,727,857,659,137,16948,-2132,3512,-460,79,34
6442,855,716,858,663,144,16912,-2032,3528,-497,40,54
6445,863,708,859,665,141,16836,-2068,3476,-515,46,42
6448,861,703,862,661,143,17016,-1964,3588,-536,43,36
6451,861,701,859,662,143,16940,-1984,3488,-486,24,33
6454,861,704,863,667,139,16952,-1944,3468,-498,34,58
6457,856,710,858,664,142,16952,-2132,3440,-525,14,47
6460,857,717,863,659,142,16868,-2136,3404,-627,24,30
6463,860,720,866,663,138,16844,-2252,3312,-668,41,32
6466,865,720,867,672,141,16784,-2236,3292,-705,9,33
6469,866,711,859,666,146,16740,-2144,3412,-679,-21,58
6472,863,709,865,663,143,16836,-2244,3272,-629,-24,56
6475,863,709,862,656,141,16892,-2288,3340,-610,-19,56
6478,861,713,866,656,139,16912,-2240,3540,-612,-42,69
6481,863,709,867,649,139,16872,-2336,3484,-664,-45,83
6484,865,707,870,646,141,16924,-2452,3576,-681,-56,89
6487,866,711,874,650,137,16820,-2520,3620,-647,-125,162
6490,852,713,873,654,142,17004,-2540,3520,-584,-293,252
6493,885,716,868,656,139,17016,-2352,3692,-610,-56,238
6496,866,711,866,659,144,16940,-2432,3640,-559,91,228
6499,863,710,867,658,138,17044,-2332,3568,-663,-88,152
6502,864,714,867,656,141,16848,-2396,3760,-646,-104,158
6505,871,711,858,656,137,16944,-2344,3664,-581,-133,227
6508,856,710,865,655,141,16928,-2292,3460,-594,-64,212
6511,862,704,864,654,140,16996,-2360,3684,-641,-13,175
6514,864,706,863,656,138,16976,-2224,3512,-656,-123,151
6517,858,706,865,658,142,17048,-2232,3540,-660,-113,149
6520,862,702,863,661,139,16976,-2248,3292,-629,-61,158
6523,857,704,863,659,129,16816,-2244,3384,-612,-119,174
6526,848,700,861,663,132,16916,-2256,3664,-624,-61,165
6529,862,694,851,673,121,16872,-2140,3464,-659,-63,145
6532,861,688,863,661,134,16948,-2188,3412,-726,-67,130
6535,860,693,861,663,133,16828,-2164,3300,-744,-116,125
6538,862,695,867,662,134,16876,-2020,3280,-766,-148,144
6541,851,688,885,658,133,16956,-2108,3300,-777,-166,138
6544,866,689,862,661,131,16924,-1984,3536,-779,-177,129
6547,860,693,864,670,119,16988,-2084,3456,-802,-200,107
6550,860,698,866,657,130,17048,-2008,3320,-841,-183,115
6553,859,707,863,659,131,17008,-2120,3368,-825,-186,98
6556,866,711,864,654,135,17088,-2128,3388,-841,-137,96
6559,866,718,865,651,134,17112,-2040,3368,-860,-183,94
6562,862,720,861,652,123,17096,-1980,3304,-878,-149,59
6565,863,719,863,649,142,17196,-2084,3320,-909,-137,57
6568,867,715,869,649,133,17104,-2048,3400,-957,-144,25
6571,867,711,870,651,131,17124,-2092,3384,-978,-76,52
6574,861,717,863,653,128,17044,-1960,3536,-943,-146,101
6577,861,720,859,655,135,17096,-2012,3348,-959,-39,15
6580,863,721,867,644,128,17088,-2008,3664,-902,-65,37
6583,874,720,869,650,133,17004,-1940,3564,-939,-20,-1
6586,863,720,868,652,129,16972,-2004,3476,-956,-25,7
6589,866,721,864,639,132,16972,-1932,3636,-987,-28,-32
6592,865,721,861,655,142,17100,-1992,3600,-1006,-26,29
6595,860,718,864,657,129,17112,-2028,3592,-972,-30,-47
6598,852,713,858,657,130,17048,-2028,3696,-955,-5,-10
6601,855,704,864,658,129,17048,-2004,3696,-891,-14,-24
6604,853,703,859,659,128,17028,-1956,3716,-868,-19,-23
6607,848,701,861,656,131,16960,-2032,3604,-845,-9,-33
6610,851,699,862,677,131,16960,-1964,3572,-811,-8,-44
6613,848,699,858,656,130,17088,-1984,3736,-798,5,-55
6616,850,703,865,659,133,17056,-2016,3596,-777,30,-65
6619,851,698,859,663,130,16996,-2064,3572,-777,-7,-41
6622,853,695,859,658,128,16828,-2028,3504,-743,-51,-31
6625,858,716,861,659,128,16972,-2012,3300,-768,-28,-21
6628,862,701,855,666,128,17060,-2060,3672,-797,88,-66
6631,860,705,858,660,128,16956,-1976,3516,-797,15,-90
6634,862,705,861,658,130,17008,-2104,3336,-842,5,-80
6637,855,709,863,656,126,17020,-2088,3420,-831,71,-79
6640,862,711,855,657,131,17044,-2052,3540,-843,54,-71
6643,862,708,859,653,128,17024,-2016,3496,-894,39,-80
6646,864,711,857,656,128,17060,-2144,3576,-963,74,-99
6649,871,713,863,656,128,16952,-2076,3544,-1005,89,-131
6652,870,711,862,656,130,16920,-2108,3504,-1042,54,-97
6655,871,715,865,651,131,16888,-2032,3432,-1052,50,-89
6658,866,720,861,656,133,16980,-2076,3512,-1075,55,-74
6661,864,720,864,656,133,16924,-2076,3548,-1096,78,-71
6664,864,714,867,662,128,16884,-2196,3416,-1152,93,-66
6667,861,704,858,671,125,16880,-2152,3588,-1201,73,-36
6670,861,695,861,667,128,16936,-2144,3520,-1194,113,-28
6673,860,697,863,673,130,16932,-2140,3460,-1214,89,-13
6676,863,699,859,674,129,16928,-2156,3628,-1235,92,-12
6679,859,701,862,670,129,16920,-2072,3736,-1231,77,10
6682,854,688,861,668,128,16940,-2120,3736,-1235,75,0
6685,858,695,862,666,128,16944,-2144,3700,-1203,68,19
6688,856,697,860,661,133,16924,-2024,3484,-1153,75,26
6691,862,709,858,669,129,16816,-2200,3424,-1120,66,13
6694,877,711,861,661,128,16916,-2112,3584,-1058,68,16
6697,858,714,862,657,132,16980,-2196,3300,-1020,21,-2
6700,862,718,861,659,131,16908,-2100,3416,-1017,10,3
6703,862,713,854,661,138,16904,-2072,3420,-1050,-8,-40
6706,869,709,861,663,134,17068,-2160,3396,-1057,-17,-38
6709,862,709,864,668,135,17068,-2160,3532,-1056,-24,-81
6712,862,704,862,665,128,17020,-2132,3388,-1033,-54,-68
6715,863,701,860,663,129,17016,-2180,3428,-1045,-72,-116
6718,864,701,860,658,128,17104,-2164,3592,-1010,-45,-114
6721,869,704,862,661,128,17040,-2264,3572,-1006,-50,-112
6724,870,710,859,656,129,16952,-2084,3608,-1006,-52,-96
6727,873,703,863,657,131,17100,-2160,3572,-962,-36,-139
6730,869,704,862,656,129,17032,-2120,3452,-979,-87,-55
6733,868,705,858,656,129,17240,-2244,3404,-971,85,-53
6736,867,709,862,655,128,17036,-2164,3664,-997,73,-89
6739,867,705,859,656,130,16828,-2064,3596,-983,-38,-102
6742,866,701,861,657,131,16852,-2204,3664,-958,-27,-133
6745,887,695,854,655,125,16880,-2092,3572,-913,-14,-117
6748,868,689,856,656,130,16908,-2148,3572,-908,4,-96
6751,871,699,863,646,133,16904,-2052,3500,-871,19,-72
6754,868,692,859,659,128,17000,-2116,3592,-907,23,-78
6757,855,690,858,657,128,17000,-2168,3560,-919,39,-57
6760,861,694,861,659,126,17068,-2076,3652,-934,74,-61
6763,859,695,858,669,128,16932,-2112,3520,-945,95,-62
6766,858,699,857,669,129,16956,-2120,3596,-926,92,-47
6769,859,705,852,671,129,16896,-2120,3616,-972,104,-56
6772,861,704,858,669,128,16936,-2128,3500,-964,112,-59
6775,854,706,855,673,129,16912,-2128,3492,-987,85,-67
6778,863,704,857,672,129,17008,-2104,3332,-975,90,-79
6781,855,706,856,673,131,16976,-2120,3532,-962,88,-85
6784,860,707,855,671,130,17116,-2196,3384,-1008,31,-112
6787,859,710,859,668,129,16980,-2260,3512,-1014,73,-100
6790,859,708,858,669,129,16924,-2276,3240,-999,39,-116
6793,858,707,861,665,128,16932,-2176,3412,-1009,51,-107
6796,857,704,858,672,130,17060,-2284,3428,-1004,31,-130
6799,860,706,859,667,130,17016,-2272,3452,-990,25,-110
6802,865,711,861,667,130,16884,-2256,3556,-992,40,-123
6805,862,703,861,662,128,16988,-2144,3492,-946,35,-109
6808,863,711,855,651,128,16960,-2244,3524,-929,38,-95
6811,862,709,855,666,128,16872,-2032,3704,-891,44,-95
6814,862,709,862,667,128,16844,-2136,3608,-867,23,-64
6817,875,701,859,669,125,16956,-2072,3732,-839,27,-58
6820,869,701,859,663,129,16852,-2068,3580,-838,49,-40
6823,870,702,859,667,128,16956,-1976,3580,-818,69,-43
6826,866,704,859,669,128,16872,-2032,3508,-820,54,-29
6829,873,701,859,658,128,16924,-1972,3556,-795,39,-29
6832,874,702,857,668,128,16904,-1964,3508,-812,43,-32
6835,873,703,854,663,128,17028,-2048,3560,-792,79,-22
6838,868,702,859,667,129,16812,-2024,3540,-818,35,-48
6841,867,705,864,667,129,16824,-2048,3520,-864,44,-58
6844,863,711,863,669,128,16948,-2160,3348,-914,25,-51
6847,862,710,862,668,129,17024,-2108,3424,-930,23,-40
6850,864,705,859,669,130,16956,-2076,3388,-954,-23,-75
6853,857,704,859,667,128,16948,-2260,3592,-931,-23,-74
6856,858,699,862,669,130,16916,-2104,3468,-906,-4,-73
6859,861,692,853,669,128,16992,-2200,3548,-910,-10,-93
6862,865,690,863,668,128,16896,-2260,3476,-905,-29,-78
6865,854,688,857,671,128,16948,-2200,3548,-876,-18,-84
6868,859,694,861,667,126,16944,-2308,3508,-868,-20,-115
6871,860,697,855,667,128,16924,-2164,3552,-848,12,-82
6874,853,687,858,666,128,16864,-2260,3576,-871,-24,-107
6877,861,698,851,663,129,16948,-2216,3592,-893,-18,-90
6880,857,703,855,662,127,16888,-2240,3624,-900,-38,-52
