Time,MMG1,MMG2,MMG3,MMG4,EMG,AccelX,AccelY,AccelZ,GyroX,GyroY,GyroZ
0,806,801,896,761,1119,4028,-16180,-336,-888,-50,-65
4,816,782,899,763,1072,4208,-16260,-320,-869,-39,-92
7,806,762,884,745,999,4228,-16124,-364,-872,-18,-46
10,805,767,882,741,959,4204,-16188,-456,-843,-32,-69
13,804,754,887,742,915,4160,-16184,-484,-863,-14,-38
16,802,768,883,745,880,4256,-16124,-432,-853,-41,-63
19,803,759,890,741,843,4208,-16132,-340,-865,-31,-48
22,797,765,880,742,807,4204,-16036,-348,-867,-18,-50
25,805,756,882,743,774,4172,-16096,-460,-837,10,-39
28,801,765,884,747,741,4116,-16096,-432,-852,9,-32
31,807,766,890,743,707,4296,-16032,-448,-833,23,-24
34,803,763,894,742,683,4088,-16060,-396,-856,43,-24
37,803,765,891,736,655,4172,-16048,-412,-827,43,-22
40,807,763,890,740,626,4276,-16016,-420,-869,40,-27
43,802,763,892,745,603,4248,-16048,-436,-866,27,-46
46,805,762,891,739,582,4232,-16012,-272,-869,59,-14
49,803,767,887,738,558,4268,-16060,-300,-882,37,-46
52,802,769,891,742,534,4332,-16104,-348,-876,36,-37
55,806,762,887,740,511,4288,-16036,-300,-864,8,-34
58,803,765,889,742,496,4240,-16080,-440,-893,30,-59
61,806,752,892,742,482,4244,-16032,-288,-902,4,-34
64,805,769,880,742,458,4152,-16128,-492,-927,0,-39
67,821,763,884,743,443,4188,-16084,-276,-928,2,-54
70,805,768,887,741,426,4204,-16188,-356,-949,-59,-81
73,807,766,883,739,414,4156,-16164,-316,-959,-51,-60
76,803,763,885,746,399,4088,-16160,-420,-940,-74,-32
79,816,765,886,745,384,4200,-16128,-364,-970,-60,-60
82,802,762,886,743,369,4204,-16060,-280,-971,-88,-54
85,806,766,911,741,359,4144,-16028,-284,-959,-64,-59
88,805,763,883,743,347,4156,-16088,-380,-970,-68,-80
91,805,767,887,743,336,4156,-16064,-196,-994,-66,-91
94,803,765,890,737,331,4228,-16088,-436,-994,-44,-83
97,795,765,893,751,314,4148,-16140,-312,-1003,-77,-90
100,802,757,888,742,311,4156,-16144,-316,-995,-55,-74
103,816,773,886,743,300,4188,-16160,-248,-1002,-58,-97
106,809,763,887,742,288,4240,-16072,-396,-987,-27,-76
109,803,768,892,745,282,4204,-16140,-404,-978,-49,-96
112,805,763,892,745,272,4088,-16096,-388,-973,-40,-84
115,806,765,890,746,268,4288,-16064,-260,-974,-42,-84
118,801,764,887,742,257,4100,-16120,-352,-956,-44,-75
121,803,766,890,741,251,4160,-16148,-412,-935,-44,-92
124,804,766,886,743,243,4172,-16104,-364,-932,-41,-68
127,802,777,887,745,241,4204,-16196,-372,-901,-31,-92
130,806,765,887,746,231,4204,-16200,-448,-902,-12,-94
133,805,767,881,745,230,4256,-16184,-300,-871,-26,-69
136,805,769,885,743,225,4068,-16156,-512,-888,-13,-79
139,806,768,885,745,222,4072,-16132,-460,-878,-39,-88
142,807,765,891,747,210,4068,-16180,-468,-873,-35,-90
145,806,766,893,747,210,4200,-16224,-396,-882,-7,-75
148,803,764,903,742,207,4160,-16140,-272,-889,-3,-88
151,807,765,886,745,199,4148,-16108,-384,-898,-10,-106
154,802,769,890,733,195,4196,-16208,-380,-868,21,-107
157,804,772,885,742,192,4256,-16196,-296,-891,36,-79
160,803,768,882,749,193,4268,-16228,-420,-839,60,-109
163,807,765,892,749,188,4208,-16188,-404,-869,82,-83
166,807,767,886,747,187,4184,-16156,-396,-855,86,-116
169,802,769,890,746,180,4148,-16132,-396,-869,107,-108
172,802,767,887,743,177,4204,-16184,-256,-883,82,-96
175,805,770,889,745,175,4160,-16260,-296,-883,85,-126
178,801,768,885,741,173,4220,-16196,-224,-898,93,-140
181,807,771,889,743,169,4312,-16220,-284,-909,100,-141
184,807,769,889,744,167,4084,-16264,-288,-897,127,-110
187,803,768,885,743,165,4104,-16216,-264,-902,95,-118
190,811,769,891,745,165,4276,-16168,-324,-914,59,-117
193,810,778,882,746,159,4220,-16256,-360,-917,26,-121
196,806,770,883,751,162,4048,-16188,-408,-881,90,-135
199,805,766,890,749,158,4212,-16244,-288,-882,127,-111
202,805,766,890,742,154,4212,-16220,-300,-896,143,-125
205,806,771,882,748,149,4268,-16168,-384,-905,105,-101
208,807,765,886,750,149,4256,-16292,-444,-883,153,-129
211,805,767,886,745,146,4236,-16216,-404,-907,190,-148
214,805,764,889,749,146,4232,-16332,-488,-880,203,-148
217,809,768,885,747,145,4292,-16216,-272,-875,189,-150
220,804,760,891,747,150,4280,-16228,-320,-829,258,-141
223,804,767,886,747,145,4296,-16304,-384,-831,275,-164
226,803,763,907,742,144,4172,-16292,-424,-802,315,-158
229,801,764,889,747,143,4264,-16276,-412,-764,364,-166
232,805,767,901,742,144,4040,-16140,-524,-814,408,-216
235,797,770,882,742,143,4032,-16288,-376,-630,449,-171
238,802,768,893,761,142,4048,-16248,-464,-562,380,-126
241,798,772,889,740,135,4076,-16380,-504,-577,277,-135
244,800,766,887,743,137,4120,-16280,-672,-631,196,-176
247,802,767,880,743,140,4412,-16528,-452,-606,340,-203
250,802,769,887,742,134,4376,-16512,-724,-625,149,-195
253,802,767,886,745,138,4600,-16296,-320,-701,333,-249
256,800,768,891,746,137,4356,-16420,-636,-633,407,-224
259,808,768,883,746,129,4468,-16328,-168,-502,703,-173
262,804,768,886,741,128,4368,-16104,-204,-569,771,-232
265,806,769,892,747,135,4324,-16156,-340,-604,477,-242
268,794,768,887,745,138,3804,-16028,-712,-691,-110,-233
271,801,769,890,747,130,4104,-15932,-384,-650,3,-223
274,803,768,886,737,128,4196,-15844,-252,-554,176,-108
277,800,768,881,741,128,4180,-15288,56,-616,397,-130
280,800,768,888,742,129,4264,-15684,-8,-582,415,-108
283,801,770,896,743,128,4196,-16356,-352,-568,309,-102
286,799,761,886,747,128,4648,-16016,-468,-509,518,-64
289,804,757,890,746,125,4520,-15880,-416,-427,721,-95
292,800,757,887,749,127,4184,-15732,-292,-454,389,-74
295,797,753,883,746,128,4012,-16024,-428,-537,309,-175
298,798,759,881,750,127,4300,-16092,-260,-475,242,-103
301,801,753,880,745,128,3668,-16152,-68,-394,148,-81
304,799,751,885,748,128,3864,-16140,-636,-337,-1171,145
307,799,752,880,750,128,4100,-16224,-184,-406,-722,184
310,804,752,880,751,126,4988,-15536,448,-759,531,-97
313,803,763,883,751,125,4928,-15752,-312,-763,737,-154
316,806,742,887,749,125,4380,-15568,204,-796,774,-152
319,801,752,880,752,124,4008,-15824,-20,-711,383,-42
322,799,754,883,751,121,3876,-15764,-268,-816,-464,18
325,803,754,886,747,118,4280,-15824,-96,-1000,-503,-10
328,792,750,881,747,122,4676,-15812,-232,-804,85,28
331,801,755,885,749,116,4756,-15700,-52,-788,586,-29
334,803,757,880,747,119,4332,-15540,-104,-774,568,10
337,807,757,881,750,118,4140,-15860,-92,-868,208,-44
340,811,754,885,749,123,3864,-15536,-256,-1123,-688,-64
343,813,757,880,752,114,4148,-15756,-164,-1144,-631,-57
346,809,762,883,743,118,4648,-16004,-164,-989,-265,43
349,811,762,883,745,127,4352,-15784,-216,-1040,-205,49
352,811,763,885,743,119,4336,-15916,-164,-912,67,70
355,815,766,883,752,115,4224,-16028,-212,-1027,97,1
358,816,762,885,742,118,4076,-15900,-244,-1198,-98,-119
361,815,758,894,743,115,4040,-16156,-408,-1260,-272,-160
364,816,765,887,741,118,4180,-16304,-356,-1213,-149,-107
367,816,766,887,742,117,4324,-16012,-356,-1273,-38,-153
370,813,768,886,745,118,4348,-16096,-188,-1322,41,-111
373,816,771,887,741,115,4244,-16444,-216,-1192,350,-85
376,814,768,884,746,114,4172,-16096,-484,-1404,34,-206
379,806,775,885,740,117,3952,-16156,-416,-1404,-220,-204
382,806,770,889,739,118,4132,-16252,-44,-1392,36,-254
385,795,768,895,745,113,4192,-16200,-68,-1347,322,-219
388,805,767,883,749,117,4136,-16320,-364,-1232,223,-148
391,811,768,881,752,114,4000,-16520,-340,-1318,-3,-188
394,813,766,882,745,122,4036,-15948,-184,-1408,7,-175
397,807,774,883,741,123,4352,-16364,-172,-1288,59,-110
400,805,769,883,733,119,4212,-16200,-104,-1392,21,-131
403,804,771,883,749,118,4196,-15988,8,-1359,-60,-95
406,807,768,900,750,118,4008,-16356,36,-1363,-133,-95
409,809,766,885,752,115,4044,-16224,-212,-1442,-268,-131
412,807,765,897,752,122,4132,-16164,-40,-1375,-309,-121
415,811,769,887,750,117,4176,-16232,-28,-1393,-339,-115
418,811,768,884,747,113,4188,-16268,-56,-1313,-330,-72
421,810,766,885,746,118,4144,-16212,-140,-1306,-279,-85
424,807,784,892,741,117,4096,-16124,-148,-1321,-317,-81
427,797,768,888,741,115,4096,-16212,-144,-1306,-347,-91
430,811,767,881,747,119,4084,-16248,-224,-1276,-312,-75
433,813,770,886,749,117,4092,-16312,-212,-1277,-251,-105
436,809,768,887,743,114,4188,-16256,-196,-1232,-215,-70
439,811,770,883,741,116,4176,-16208,-220,-1195,-101,-56
442,800,765,885,749,117,4328,-16140,-152,-1201,-53,-55
445,807,764,910,749,121,4100,-16008,-300,-1190,-41,-61
448,807,763,890,747,120,4028,-16000,-304,-1186,-14,-46
451,815,759,883,749,113,4192,-16156,-364,-1150,-17,-56
454,809,762,881,748,116,4108,-16176,-260,-1109,-68,-38
457,807,756,882,765,114,4084,-16500,-528,-1055,-75,-48
460,807,784,881,746,124,4000,-16048,-220,-1123,-58,-65
463,807,769,884,747,119,4148,-16056,-344,-1094,-120,-55
466,805,769,882,749,114,3972,-16088,-460,-1119,-227,-59
469,814,767,887,747,117,4100,-16024,-448,-1182,-230,-89
472,811,766,886,743,113,4140,-16236,-456,-1174,-236,-124
475,811,768,887,742,115,4164,-15828,-384,-1243,-213,-99
478,814,770,882,749,118,4132,-16168,-412,-1222,-219,-79
481,813,773,881,745,115,4084,-15872,-428,-1252,-172,-91
484,809,769,882,752,117,4152,-16060,-608,-1208,-103,-93
487,809,770,885,743,116,4120,-16204,-380,-1216,-18,-99
490,810,772,881,743,117,4112,-16020,-532,-1237,-29,-92
493,813,779,887,744,118,4060,-16056,-456,-1244,-67,-85
496,813,770,892,739,122,4292,-15824,-488,-1423,7,-128
499,811,776,893,743,114,4248,-15984,-380,-1381,428,-193
502,813,778,893,741,113,4296,-16084,-452,-1506,556,-283
505,816,781,892,739,114,4056,-16028,-188,-1461,404,-248
508,815,779,892,736,121,3968,-15976,-600,-1436,94,-195
511,816,783,894,743,116,4012,-15940,-264,-1478,48,-229
514,815,783,887,746,113,4060,-16004,-272,-1400,8,-179
517,816,782,887,750,118,4340,-16112,-412,-1404,148,-165
520,816,782,887,743,117,4228,-15832,-416,-1506,142,-196
523,815,778,891,743,114,4224,-15996,-360,-1424,97,-164
526,814,777,887,752,117,4216,-15988,-332,-1494,13,-164
529,808,778,891,741,113,4224,-16088,-552,-1466,65,-149
532,814,778,891,741,116,4268,-16080,-408,-1489,54,-162
535,810,778,892,738,117,4368,-16256,-640,-1430,-61,-148
538,805,780,894,739,123,4308,-16232,-380,-1421,-54,-154
541,800,778,890,738,115,4196,-16148,-404,-1374,-72,-105
544,809,776,892,745,119,4316,-16224,-620,-1342,-114,-70
547,804,779,891,745,118,4280,-16072,-444,-1329,-144,-60
550,807,779,886,742,112,4224,-16172,-448,-1299,-100,-50
553,809,771,886,742,114,4272,-16144,-272,-1324,-112,-90
556,805,769,891,747,116,4324,-16080,-608,-1291,-122,-48
559,801,778,884,742,120,4336,-15872,-348,-1286,-169,-48
562,809,771,887,745,116,4588,-16168,-368,-1216,-86,-43
565,810,771,891,750,113,4296,-16080,-612,-1191,-109,-40
568,806,768,888,760,115,4572,-16244,-328,-1171,-134,0
571,811,768,891,746,114,4648,-16000,-512,-1168,-93,-14
574,803,762,883,743,113,4740,-16112,-584,-1140,0,20
577,807,767,896,749,112,4640,-16212,-476,-1145,11,4
580,810,768,883,744,118,4560,-16256,-612,-1123,59,13
583,810,757,887,747,117,4584,-16168,-468,-1162,61,-13
586,810,771,881,751,118,4688,-16156,-492,-1194,172,-36
589,806,765,887,750,122,4616,-16192,-452,-1276,291,-117
592,803,759,889,749,116,4516,-16136,-420,-1211,292,-69
595,807,758,881,750,116,4572,-16232,-604,-1227,178,-102
598,805,758,889,750,112,4524,-16204,-584,-1187,164,-84
601,805,752,890,750,114,4436,-16260,-712,-1131,82,-41
604,802,756,889,746,114,4528,-16304,-508,-1173,2,-47
607,807,757,892,743,117,4452,-16380,-688,-1114,-127,-13
610,802,758,895,746,117,4400,-16156,-488,-1175,-94,-62
613,810,763,890,747,114,4500,-16280,-724,-1109,-163,-56
616,809,758,884,743,117,4476,-16332,-560,-1119,-178,-61
619,812,759,891,746,113,4592,-16344,-764,-1098,-147,-44
622,808,765,900,743,117,4624,-16352,-552,-1061,-85,-41
625,805,756,895,747,115,4376,-16252,-536,-1044,-55,-60
628,811,759,891,745,119,4516,-16280,-516,-1013,-58,-48
631,804,757,894,738,116,4456,-16336,-504,-982,-10,-6
634,807,759,895,743,121,4456,-16196,-576,-943,70,0
637,810,759,885,743,114,4544,-16260,-480,-880,119,16
640,809,756,889,745,115,4468,-16212,-480,-825,128,43
643,811,759,893,749,115,4408,-16192,-512,-795,129,67
646,816,767,894,748,117,4480,-16120,-544,-827,91,55
649,801,761,886,741,113,4352,-16132,-324,-803,135,30
652,811,751,887,748,117,4480,-16052,-252,-777,154,47
655,807,761,887,751,115,4308,-16220,-372,-789,93,43
658,805,760,883,751,118,4296,-16136,-180,-798,51,27
661,807,759,893,751,121,4324,-16028,-372,-790,6,56
664,807,762,890,745,117,4392,-16188,-520,-782,28,95
667,810,765,889,752,116,4336,-16052,-336,-819,79,87
670,806,763,890,752,121,4288,-16080,-252,-794,-32,79
673,811,764,891,746,115,4124,-16080,-428,-829,-173,58
676,807,767,892,748,119,4224,-15992,-360,-828,-131,53
679,811,765,895,749,118,4224,-16096,-496,-828,-51,72
682,809,767,896,746,117,4248,-15976,-428,-824,-176,49
685,812,759,901,748,116,4156,-16008,-548,-839,-161,81
688,807,763,896,745,117,4164,-16040,-344,-810,-106,69
691,807,762,891,746,118,4372,-16052,-416,-818,-48,86
694,807,755,886,748,118,4276,-16084,-432,-824,6,88
697,806,761,890,743,118,4324,-16012,-340,-841,12,85
700,811,766,896,745,116,4220,-16096,-556,-814,18,78
703,811,763,889,751,118,4148,-15996,-408,-849,16,74
706,803,762,893,750,115,4196,-16108,-364,-837,-22,75
709,811,758,891,748,122,4204,-16120,-404,-845,-91,77
712,810,763,894,750,121,4196,-15980,-384,-852,-106,60
715,805,761,891,743,115,4256,-16064,-428,-840,-163,72
718,805,762,893,745,121,4132,-16084,-444,-849,-114,91
721,810,760,893,746,119,4208,-16000,-380,-848,-116,69
724,809,764,887,745,118,4172,-16076,-440,-872,-117,77
727,810,766,883,746,115,4120,-16052,-504,-870,-98,51
730,814,768,889,751,117,4164,-16020,-320,-898,-110,24
733,811,766,884,743,115,4100,-16152,-284,-922,-73,38
736,809,768,887,746,115,4156,-16060,-416,-933,-118,16
739,806,767,890,746,121,4052,-16216,-404,-961,-107,0
742,814,770,893,746,119,3976,-16100,-204,-967,-102,-7
745,807,770,893,743,117,3988,-16088,-448,-985,-94,-20
748,816,765,893,739,122,4024,-16060,-300,-1008,-83,-15
751,805,769,887,741,121,4012,-16060,-300,-1038,-96,2
754,809,765,891,743,125,3996,-16100,-340,-1026,-130,-5
757,806,766,894,742,123,3972,-16108,-308,-1027,-146,-15
760,805,764,887,743,121,3904,-16068,-372,-1034,-209,16
763,807,763,890,744,123,3924,-16052,-456,-1022,-272,55
766,812,770,890,747,119,4100,-16044,-520,-1046,-220,49
769,810,779,893,746,122,4044,-16124,-504,-1074,-79,25
772,805,767,885,743,118,4076,-16044,-520,-1103,-12,1
775,807,768,889,742,117,4068,-16084,-476,-1148,-29,11
778,803,763,891,741,123,4104,-16000,-312,-1180,-79,5
781,805,765,887,751,123,4056,-16048,-476,-1177,-70,-16
784,809,770,889,752,122,4088,-16036,-484,-1189,-69,19
787,807,761,888,750,120,3972,-16088,-544,-1199,-85,9
790,803,767,893,746,123,4140,-15972,-512,-1181,-83,28
793,806,764,887,749,119,4060,-15952,-592,-1171,-84,21
796,805,770,883,743,118,4040,-15980,-456,-1164,-87,40
799,806,764,890,746,118,4120,-15944,-420,-1153,-125,39
802,811,766,890,752,121,4024,-16040,-436,-1145,-100,68
805,805,765,891,750,122,4076,-15936,-516,-1165,-105,50
808,811,770,887,752,118,4024,-16020,-420,-1135,-66,33
811,807,771,887,749,123,4188,-15924,-584,-1139,-61,64
814,811,772,887,750,121,4008,-16016,-568,-1114,-24,54
817,814,768,892,748,119,4100,-15984,-508,-1115,-27,30
820,811,775,894,748,126,4132,-16084,-436,-1118,-33,59
823,809,775,894,742,117,4208,-16140,-556,-1137,-16,25
826,810,781,891,745,119,4124,-16120,-464,-1124,-62,52
829,810,777,895,747,124,4268,-16152,-604,-1119,-83,51
832,812,774,893,742,119,4084,-16124,-524,-1115,-68,15
835,813,781,893,745,118,4168,-16184,-544,-1129,-109,25
838,807,771,889,745,118,4132,-16172,-684,-1098,-119,31
841,814,782,894,747,117,4112,-16176,-624,-1086,-160,5
844,813,782,895,743,118,4212,-16180,-684,-1108,-120,29
847,813,783,890,742,122,4200,-16260,-540,-1078,-161,-15
850,813,778,895,746,118,4220,-16344,-676,-1067,-139,8
853,809,775,889,739,115,4176,-16212,-616,-1067,-152,-2
856,814,778,891,741,118,4248,-16324,-724,-1035,-113,-9
859,803,773,896,743,115,4312,-16312,-756,-1023,-74,-25
862,816,775,889,745,122,4308,-16264,-644,-1027,-102,-15
865,813,782,895,749,113,4352,-16332,-576,-1004,-85,-2
868,803,778,893,746,117,4344,-16332,-556,-979,-79,-10
871,795,775,891,743,121,4272,-16324,-712,-996,-80,-9
874,804,781,893,747,117,4300,-16200,-496,-910,-66,-14
877,801,774,887,752,124,4324,-16232,-652,-945,-104,13
880,810,779,887,751,118,4256,-16324,-620,-925,-75,-10
883,802,775,886,750,120,4292,-16304,-584,-910,-46,4
886,804,771,892,747,124,4380,-16280,-604,-884,-38,-3
889,803,769,883,752,115,4324,-16256,-536,-860,-26,10
892,803,771,893,750,117,4276,-16324,-472,-853,-17,27
895,804,771,885,751,119,4396,-16208,-628,-847,0,29
898,803,766,886,751,115,4296,-16164,-536,-822,10,10
901,803,770,889,759,118,4304,-16176,-556,-806,15,27
904,803,769,885,750,117,4288,-16088,-508,-789,35,38
907,803,769,880,745,115,4352,-16188,-536,-762,32,19
910,802,766,886,750,117,4292,-16140,-548,-754,59,21
913,806,767,885,752,116,4312,-15984,-504,-731,86,22
916,806,768,887,751,117,4296,-16124,-524,-725,65,48
919,798,766,889,751,121,4292,-16076,-568,-740,67,37
922,807,765,893,749,113,4284,-16000,-656,-738,62,35
925,806,767,895,749,119,4268,-16064,-668,-741,41,44
928,807,763,889,748,115,4220,-16080,-704,-763,30,34
931,806,766,893,748,112,4284,-16000,-776,-752,64,55
934,807,769,889,752,115,4220,-16000,-740,-762,19,30
937,806,758,889,752,120,4308,-16052,-572,-769,4,68
940,810,764,884,750,117,4196,-15992,-608,-776,-5,51
943,811,764,883,749,119,4184,-16008,-624,-767,-4,54
946,807,766,890,750,118,4188,-16004,-696,-811,-29,57
949,806,759,891,752,117,4088,-16016,-640,-804,-28,62
952,807,763,885,752,118,4100,-16020,-680,-809,-59,77
955,807,762,887,750,122,4028,-15984,-588,-830,-22,68
958,806,763,896,749,121,4156,-16096,-580,-845,-34,51
961,807,768,887,750,122,4160,-16004,-604,-858,-71,68
964,807,767,884,751,118,4060,-16084,-520,-844,-106,42
967,809,765,889,751,113,4160,-16028,-492,-816,-40,68
970,806,767,891,747,118,4104,-15908,-460,-815,-148,48
973,803,767,891,751,117,4040,-16036,-524,-851,-143,40
976,816,770,883,747,118,3976,-16040,-596,-800,-102,64
979,803,767,890,751,117,4076,-16032,-560,-826,-158,63
982,808,771,883,751,117,4044,-16044,-540,-821,-184,60
985,804,772,894,748,119,3996,-15996,-468,-826,-211,66
988,805,771,890,747,115,3968,-16060,-496,-807,-165,88
991,809,769,892,750,119,4156,-16064,-520,-806,-187,88
994,807,775,886,748,118,4132,-16072,-520,-789,-194,77
997,810,768,891,742,115,3976,-16052,-624,-789,-310,110
1000,811,771,894,743,116,4012,-15960,-524,-784,-246,78
1003,806,769,890,741,118,4168,-15960,-484,-758,-204,96
1006,807,769,885,745,117,4132,-16052,-524,-739,-235,93
1009,804,768,894,749,118,3992,-16036,-488,-756,-272,71
1012,820,767,894,741,115,4140,-16100,-560,-723,-275,110
1015,807,770,887,752,119,4080,-16040,-444,-749,-276,86
1018,810,768,890,752,115,4092,-16044,-624,-738,-243,112
1021,810,768,892,748,119,4176,-16104,-736,-732,-224,93
1024,807,768,896,739,117,4060,-16120,-720,-726,-239,89
1027,811,766,896,747,115,4084,-16100,-552,-733,-181,72
1030,812,770,898,747,117,4140,-16144,-644,-765,-226,105
1033,810,765,891,748,116,4028,-16108,-460,-758,-226,67
1036,807,768,885,745,116,4020,-16180,-464,-764,-277,80
1039,807,767,889,743,117,3996,-16180,-580,-734,-412,126
1042,815,768,890,746,118,4088,-16204,-536,-735,-422,139
1045,811,766,887,749,115,4100,-16152,-516,-798,-285,110
1048,806,777,889,743,118,4184,-16108,-584,-832,-232,94
1051,812,770,885,748,117,4004,-16156,-416,-881,-159,69
1054,809,767,891,742,117,4032,-16196,-644,-894,-301,67
1057,805,772,895,742,114,4108,-16244,-548,-925,-313,71
1060,807,764,892,746,115,4012,-16272,-480,-947,-447,56
1063,806,767,891,750,115,4140,-16180,-552,-998,-440,34
1066,811,768,895,747,115,4116,-16288,-380,-974,-392,45
1069,810,768,890,745,114,4192,-16280,-380,-986,-332,21
1072,807,769,892,753,117,4252,-16224,-464,-980,-383,25
1075,807,768,895,749,115,4136,-16316,-516,-1022,-460,-9
1078,810,765,911,745,112,4068,-16216,-420,-1006,-514,21
1081,805,763,894,747,117,4124,-16144,-620,-1010,-471,-6
1084,809,759,885,751,117,4184,-16208,-452,-989,-384,-12
1087,794,755,894,743,117,4288,-16204,-408,-966,-271,-27
1090,810,761,899,749,116,4176,-16184,-496,-989,-388,-25
1093,804,757,883,749,116,4144,-16168,-416,-939,-315,-18
1096,806,762,891,759,112,4268,-16204,-484,-938,-153,8
1099,807,757,888,746,116,4260,-16172,-248,-927,-101,-10
1102,805,758,890,746,114,4140,-16244,-524,-955,-166,-33
1105,805,755,885,750,114,4152,-16184,-396,-954,-240,-44
1108,803,755,889,746,113,4168,-16064,-364,-967,-313,-27
1111,809,759,894,746,115,4160,-16160,-468,-964,-329,-61
1114,812,757,886,746,115,4176,-16152,-324,-994,-321,-61
1117,811,759,889,748,115,4064,-16028,-160,-1004,-370,-69
1120,811,759,891,747,112,4152,-16028,-456,-1002,-376,-62
1123,821,760,883,749,112,4124,-16012,-516,-1022,-399,-67
1126,811,762,896,746,112,4180,-15944,-280,-1046,-423,-59
1129,816,761,889,742,114,4088,-15960,-576,-1050,-427,-69
1132,813,769,892,743,113,4136,-16076,-464,-1113,-396,-70
1135,806,759,887,745,115,4160,-15984,-328,-1124,-372,-70
1138,816,763,885,747,112,4048,-16044,-400,-1129,-366,-85
1141,814,763,892,742,117,4120,-16032,-416,-1164,-439,-77
1144,815,767,891,746,113,4080,-16112,-428,-1171,-406,-108
1147,811,767,887,741,117,4056,-16144,-508,-1172,-376,-96
1150,816,763,887,742,114,4096,-16120,-196,-1216,-403,-90
1153,816,770,890,741,112,3976,-16160,-420,-1198,-310,-98
1156,814,770,894,741,116,3984,-16244,-492,-1189,-296,-98
1159,810,769,889,738,114,3948,-16144,-420,-1201,-436,-115
1162,816,760,893,738,118,3976,-16144,-520,-1254,-461,-147
1165,814,770,880,737,118,4080,-16268,-380,-1181,-393,-113
1168,810,772,885,738,112,4044,-16176,-412,-1230,-371,-134
1171,814,758,895,742,112,4184,-16220,-380,-1218,-276,-121
1174,813,774,891,735,114,4100,-16136,-544,-1236,-312,-120
1177,811,770,893,739,112,4016,-16144,-572,-1199,-303,-113
1180,811,771,887,742,118,4088,-16172,-400,-1274,-329,-142
1183,811,761,883,743,116,4036,-16256,-444,-1226,-316,-128
1186,812,771,887,748,119,4144,-16180,-368,-1183,-277,-119
1189,807,768,889,742,112,4120,-16268,-404,-1162,-219,-129
1192,808,770,887,746,114,4108,-16200,-344,-1176,-272,-124
1195,806,768,895,743,113,4020,-16244,-456,-1105,-225,-100
1198,809,772,883,745,114,4164,-16068,-312,-1127,-193,-144
1201,805,781,882,743,117,4204,-16112,-388,-1101,-162,-107
1204,805,776,884,741,117,4052,-16140,-308,-1113,-259,-129
1207,832,774,894,742,116,4152,-16120,-544,-1068,-222,-119
1210,804,773,893,742,117,4016,-16156,-536,-1046,-244,-103
1213,805,765,894,739,114,4064,-16068,-416,-1028,-209,-108
1216,807,773,891,739,115,4088,-16052,-368,-1000,-191,-102
1219,813,773,906,742,115,4004,-16156,-432,-999,-203,-111
1222,811,775,893,739,118,4132,-16180,-336,-965,-233,-104
1225,796,775,890,739,122,4124,-16116,-508,-944,-243,-91
1228,806,773,893,733,115,4136,-16128,-508,-963,-260,-114
1231,811,773,891,740,117,4204,-16160,-588,-952,-210,-111
1234,805,768,895,740,117,4564,-16076,-380,-1056,-170,-153
1237,805,770,896,750,117,4288,-16184,-540,-1081,323,-239
1240,805,770,889,747,117,4444,-16064,-384,-1131,332,-331
1243,805,780,896,744,114,4324,-16236,-724,-1000,179,-232
1246,806,767,894,743,117,4128,-16136,-472,-1067,2,-269
1249,811,763,898,745,120,4152,-16236,-592,-986,72,-221
1252,791,770,887,744,119,4344,-16076,-844,-939,109,-133
1255,803,767,895,743,121,4180,-16132,-468,-1029,290,-187
1258,803,766,891,747,114,4396,-16124,-616,-987,217,-154
1261,800,767,892,742,115,4176,-16172,-444,-1021,241,-171
1264,802,770,893,742,119,4300,-16228,-768,-987,109,-152
1267,802,769,890,737,115,4328,-16212,-664,-1019,57,-106
1270,805,769,886,743,118,4400,-16156,-668,-1043,0,-102
1273,807,773,894,743,118,4372,-16184,-640,-1028,-22,-84
1276,805,774,885,750,122,4360,-16164,-512,-1049,-3,-89
1279,806,767,887,738,115,4428,-16108,-588,-1066,-6,-87
1282,810,765,891,739,117,4480,-16204,-620,-1068,-33,-67
1285,800,771,890,744,117,4508,-16164,-728,-1086,-51,-79
1288,811,769,887,739,122,4508,-16056,-532,-1111,-62,-82
1291,811,775,896,740,118,4468,-16228,-568,-1111,-53,-90
1294,809,768,889,747,116,4488,-16224,-680,-1110,-34,-58
1297,807,768,895,743,116,4580,-16196,-604,-1087,-32,-50
1300,811,770,892,745,117,4588,-16276,-556,-1080,19,-49
1303,807,770,891,741,119,4568,-16284,-636,-1084,24,-53
1306,816,768,895,745,124,4388,-16364,-660,-1052,45,-51
1309,813,772,894,742,124,4496,-16320,-472,-1053,49,-37
1312,809,768,893,745,116,4364,-16284,-536,-1031,93,-41
1315,818,757,890,746,114,4304,-16292,-560,-1014,85,-32
1318,810,779,895,745,119,4356,-16316,-564,-983,73,-36
1321,811,763,896,747,118,4352,-16348,-544,-970,59,-31
1324,807,762,894,743,119,4300,-16248,-612,-982,52,-59
1327,804,759,892,751,118,4268,-16400,-624,-958,15,-46
1330,810,759,887,747,116,4236,-16280,-424,-961,-1,-52
1333,804,753,889,749,118,4204,-16372,-592,-930,-54,-62
1336,807,756,885,750,121,4268,-16284,-576,-945,-59,-42
1339,810,753,891,751,118,4196,-16156,-636,-954,-114,-70
1342,807,754,888,749,118,4348,-16136,-408,-928,-103,-83
1345,810,755,893,747,120,4196,-16184,-508,-916,-138,-84
1348,806,758,891,745,121,4248,-16076,-408,-910,-141,-86
1351,805,759,895,745,123,4304,-16236,-332,-868,-169,-74
1354,805,759,888,752,119,4164,-16128,-320,-881,-139,-71
1357,808,758,893,745,122,4236,-16096,-500,-823,-126,-68
1360,799,756,890,746,119,4204,-16064,-424,-825,-126,-77
1363,803,757,896,746,123,4352,-16096,-332,-807,-94,-72
1366,806,762,890,743,119,4188,-16072,-524,-795,-76,-39
1369,803,767,894,743,122,4216,-15992,-256,-789,-97,-59
1372,808,759,891,746,119,4280,-16052,-412,-762,-64,-46
1375,807,763,896,737,118,4220,-16100,-312,-776,-21,-39
1378,803,765,893,742,122,4224,-16092,-492,-784,-31,-19
1381,804,760,896,741,122,4132,-16204,-484,-803,-47,-32
1384,805,768,895,741,122,4176,-16064,-492,-811,-72,-19
1387,806,764,895,739,122,4192,-16092,-472,-816,-63,-32
1390,807,767,896,739,122,4308,-16116,-520,-840,-99,-40
1393,809,768,896,739,125,4240,-16088,-608,-815,-103,-17
1396,801,763,893,738,124,4388,-16220,-644,-865,-146,-29
1399,803,768,888,741,118,4368,-16204,-580,-878,-139,-26
1402,803,764,893,733,119,4296,-16188,-500,-887,-182,-55
1405,803,767,893,738,120,4232,-16240,-604,-897,-215,-43
1408,803,766,894,736,122,4200,-16192,-448,-898,-212,-70
1411,801,763,890,739,124,4336,-16164,-380,-898,-204,-84
1414,802,766,893,741,125,4324,-16240,-424,-920,-192,-114
1417,802,768,891,742,121,4272,-16136,-468,-923,-167,-63
1420,805,765,890,745,120,4320,-16028,-328,-922,-178,-112
1423,803,766,895,745,119,4264,-16188,-384,-906,-174,-100
1426,802,769,886,742,125,4248,-16116,-412,-924,-162,-140
1429,802,762,887,747,122,4332,-16064,-464,-933,-154,-105
1432,799,765,894,739,127,4416,-16020,-228,-926,-126,-100
1435,806,765,889,750,124,4204,-16140,-340,-918,-149,-111
1438,825,768,895,747,121,4264,-15972,-400,-927,-122,-87
1441,810,767,885,751,123,4276,-15956,-340,-924,-105,-106
1444,808,769,892,749,124,4148,-16020,-400,-934,-101,-93
1447,802,767,898,749,121,4144,-16044,-400,-925,-140,-78
1450,809,766,891,751,127,4132,-15976,-260,-946,-131,-54
1453,811,769,891,749,117,4116,-15880,-452,-958,-109,-90
1456,805,767,891,752,117,4112,-16004,-392,-959,-78,-68
1459,813,767,889,751,116,4140,-16012,-456,-970,-95,-48
1462,812,767,887,751,117,4044,-15916,-376,-983,-114,-59
1465,810,770,891,750,124,4056,-15988,-516,-982,-110,-38
1468,818,767,894,735,117,4068,-15844,-496,-1020,-101,-31
1471,811,767,894,750,118,4016,-16056,-576,-1061,-83,-46
1474,810,754,882,768,126,3940,-15960,-396,-1007,-10,-14
1477,814,771,886,747,122,3904,-16048,-460,-1002,-99,4
1480,810,771,891,746,118,3848,-16044,-316,-1005,-89,-18
1483,807,775,894,751,117,3908,-16044,-428,-1016,-53,-7
1486,813,787,894,746,119,3840,-16048,-504,-1015,-2,-17
1489,810,769,887,750,126,3920,-16020,-504,-1009,14,-19
1492,808,770,889,747,119,3816,-16064,-372,-1035,-12,-9
1495,807,762,887,752,124,3820,-15972,-204,-1058,-81,-9
1498,807,769,893,750,125,3836,-16004,-432,-1048,-121,15
1501,813,763,894,749,117,3940,-15908,-332,-1085,-264,35
1504,816,769,897,751,118,3952,-15872,-456,-1123,-190,25
1507,809,768,887,749,127,4108,-15800,-364,-1176,60,-32
1510,806,779,893,745,124,4144,-15864,-376,-1220,73,-40
1513,807,774,889,750,122,4120,-15888,-612,-1263,-47,-49
1516,805,778,894,750,118,4072,-15824,-668,-1258,-110,-46
1519,811,779,887,747,119,3992,-15920,-640,-1230,-114,-11
1522,803,778,884,752,127,3992,-16012,-652,-1185,-19,14
1525,805,779,883,750,128,4040,-15948,-548,-1160,57,18
1528,805,777,886,748,122,4008,-15928,-628,-1107,91,19
1531,811,776,886,749,124,4024,-15872,-660,-1092,148,-2
1534,812,772,886,750,125,3984,-15964,-504,-1128,140,-14
1537,805,778,890,750,124,3960,-16028,-524,-1137,121,-12
1540,804,774,889,747,125,3980,-15980,-528,-1116,71,-20
1543,809,775,891,751,123,3888,-16004,-616,-1145,42,-3
1546,814,782,887,759,123,3876,-15968,-664,-1175,67,9
1549,814,779,887,747,129,3776,-16072,-864,-1188,72,13
1552,813,781,885,748,123,3920,-15872,-812,-1209,94,13
1555,816,779,891,764,125,3880,-16032,-676,-1250,45,18
1558,815,778,887,741,123,3864,-16072,-744,-1261,21,20
1561,817,782,894,743,124,4004,-15912,-748,-1294,37,3
1564,816,784,893,742,125,3956,-15980,-768,-1298,50,43
1567,816,784,894,743,125,3940,-15912,-756,-1314,32,41
1570,818,784,893,741,125,3848,-15972,-808,-1346,34,49
1573,819,784,895,738,128,4024,-15900,-672,-1318,56,70
1576,817,784,889,740,123,4028,-15988,-572,-1322,80,69
1579,817,785,894,735,129,4040,-16052,-736,-1299,107,78
1582,814,785,892,743,126,4016,-16080,-724,-1293,79,99
1585,814,784,896,738,129,3860,-16148,-676,-1278,23,75
1588,811,784,895,737,128,4080,-16252,-712,-1260,24,70
1591,816,785,894,742,128,4000,-16280,-676,-1251,7,87
1594,831,784,896,743,126,4136,-16212,-620,-1283,-25,75
1597,813,782,887,743,127,4196,-16228,-708,-1292,-55,46
1600,812,783,895,739,129,3976,-16304,-584,-1282,-57,22
1603,811,783,894,739,128,4136,-16356,-824,-1285,-107,36
1606,813,781,893,747,128,4132,-16304,-592,-1288,-131,-2
1609,814,778,894,742,129,4248,-16328,-840,-1284,-121,-45
1612,812,780,891,746,128,4304,-16392,-640,-1256,-122,-58
1615,809,784,896,751,124,4224,-16388,-768,-1262,-151,-84
1618,807,782,891,747,127,4232,-16388,-680,-1245,-155,-92
1621,810,787,894,748,126,4260,-16372,-656,-1224,-144,-74
1624,810,783,885,750,129,4228,-16284,-516,-1228,-153,-86
1627,810,778,893,743,128,4296,-16344,-784,-1209,-124,-103
1630,813,773,895,742,130,4336,-16404,-780,-1162,-126,-78
1633,802,774,893,749,127,4308,-16312,-664,-1176,-148,-70
1636,807,774,893,750,127,4360,-16336,-864,-1136,-103,-52
1639,803,768,891,752,126,4404,-16328,-920,-1126,-102,-42
1642,805,770,889,748,126,4436,-16324,-680,-1086,-86,-28
1645,807,770,894,752,128,4648,-16180,-776,-1107,-44,-33
1648,803,769,887,752,128,4488,-16316,-544,-1095,272,-74
1651,809,770,893,752,128,4524,-16252,-736,-1097,181,-141
1654,804,768,891,750,128,4364,-16344,-776,-1026,104,-94
1657,805,768,898,755,129,4432,-16208,-944,-995,95,-79
1660,805,768,889,750,126,4552,-16428,-864,-937,116,-58
1663,806,761,909,752,124,4468,-16224,-804,-890,88,-30
1666,803,768,891,752,128,4396,-16336,-856,-874,54,-21
1669,803,768,893,743,130,4648,-16336,-760,-872,83,-28
1672,801,765,887,752,128,4668,-16356,-936,-817,76,-6
1675,807,752,886,749,129,4524,-16368,-816,-835,64,-12
1678,798,767,895,750,127,4444,-16308,-720,-790,15,-18
1681,803,761,891,742,129,4652,-16340,-780,-781,21,-20
1684,801,766,893,747,127,4452,-16348,-740,-776,57,-45
1687,806,769,889,746,126,4500,-16324,-860,-773,48,-18
1690,803,767,891,746,128,4400,-16356,-740,-775,105,-17
1693,800,767,887,751,126,4376,-16392,-780,-787,65,-45
1696,804,768,886,767,128,4396,-16420,-656,-762,58,-50
1699,800,765,894,749,130,4324,-16308,-716,-748,46,-63
1702,801,767,892,765,128,4348,-16364,-668,-749,41,-44
1705,798,766,891,749,128,4184,-16136,-776,-731,-6,-63
1708,798,763,892,752,134,4256,-16220,-496,-764,2,-59
1711,799,758,891,758,128,4228,-16228,-724,-766,-42,-79
1714,794,759,885,752,129,4104,-16208,-476,-762,-1,-64
1717,798,765,889,752,128,4192,-16188,-708,-769,-6,-56
1720,795,763,881,754,125,4136,-16112,-464,-763,18,-36
1723,797,761,883,755,124,4068,-16204,-724,-776,-88,-38
1726,794,758,887,752,127,4028,-16112,-640,-772,-111,-28
1729,801,758,885,753,123,4176,-16160,-488,-763,-108,-43
1732,799,759,895,751,128,4172,-16096,-636,-782,-60,-85
1735,799,758,894,750,128,4160,-16056,-608,-766,1,-43
1738,801,757,892,748,129,4028,-16000,-560,-766,-101,-46
1741,805,759,886,752,128,4080,-16008,-616,-753,-103,-25
1744,800,752,886,752,132,4152,-16072,-584,-738,-70,-54
1747,802,759,895,751,129,4164,-15852,-544,-726,-94,-55
1750,794,757,886,746,125,4196,-16012,-624,-689,-71,-36
1753,801,763,893,749,129,4208,-15996,-484,-700,-60,-28
1756,787,763,893,747,128,4112,-16076,-616,-693,-75,-57
1759,803,768,889,747,128,4136,-15988,-712,-678,-105,-47
1762,791,765,890,747,128,4152,-16028,-612,-681,-54,-46
1765,800,763,892,747,127,4120,-15944,-556,-655,-57,-53
1768,804,765,894,743,129,4168,-16048,-736,-706,-112,-62
1771,803,766,886,747,128,4052,-16240,-728,-648,-99,-73
1774,804,764,894,752,131,4060,-16120,-580,-659,-139,-65
1777,800,766,891,745,129,4072,-16192,-552,-689,-91,-95
1780,801,762,887,751,123,4044,-16164,-632,-663,-107,-64
1783,801,754,887,749,128,4016,-16188,-608,-678,-150,-81
1786,801,761,886,742,129,3940,-16144,-424,-692,-164,-68
1789,797,767,892,745,129,4020,-16124,-688,-669,-133,-84
1792,799,766,888,748,125,4040,-16204,-656,-710,-130,-69
1795,800,763,885,749,129,3996,-16224,-560,-729,-93,-77
1798,801,768,896,746,129,4048,-16060,-472,-729,-93,-81
1801,799,764,885,746,129,3936,-16104,-472,-748,-77,-58
1804,795,765,891,749,129,3948,-16100,-536,-765,-34,-67
1807,798,766,885,746,129,4000,-16116,-544,-802,-58,-75
1810,801,766,890,748,128,3968,-16080,-644,-798,-57,-61
1813,800,767,880,747,129,3988,-16080,-548,-835,-29,-84
1816,803,767,890,751,128,3960,-16068,-700,-831,-20,-73
1819,791,768,886,743,129,3940,-16044,-548,-842,-21,-65
1822,801,768,892,750,128,4052,-16120,-440,-858,-22,-80
1825,803,762,887,743,128,4012,-16056,-744,-846,-40,-70
1828,804,772,885,746,128,3908,-16024,-456,-867,-62,-72
1831,807,767,891,749,128,4024,-16080,-652,-868,-49,-87
1834,805,768,891,745,128,4024,-16056,-592,-885,-83,-79
1837,803,768,889,742,131,4064,-15964,-600,-871,-60,-83
1840,803,766,887,740,130,3988,-15964,-556,-933,-88,-89
1843,806,773,894,743,129,4008,-16092,-604,-925,-86,-87
1846,801,769,886,743,127,4120,-16084,-552,-917,-78,-92
1849,802,768,890,746,128,4016,-16128,-620,-977,-91,-84
1852,803,768,893,746,126,4076,-15976,-660,-968,-106,-112
1855,808,773,894,743,136,3976,-15988,-592,-979,-117,-87
1858,806,766,893,745,131,4092,-16056,-632,-969,-99,-103
1861,803,767,891,747,130,4120,-16040,-624,-983,-116,-109
1864,802,766,891,742,125,3984,-16000,-608,-971,-115,-114
1867,807,765,890,739,129,4084,-16072,-676,-966,-109,-100
1870,803,767,895,741,128,4048,-16064,-512,-994,-117,-127
1873,806,765,893,742,131,4088,-16056,-584,-982,-92,-94
1876,805,761,891,742,128,4228,-16044,-584,-994,-93,-103
1879,810,755,896,749,125,4112,-16092,-592,-982,-87,-127
1882,807,759,891,737,127,4128,-16132,-604,-971,-98,-120
1885,807,763,891,746,128,4060,-16008,-700,-978,-78,-101
1888,807,764,894,747,128,4144,-16176,-680,-975,-85,-108
1891,805,764,891,740,127,4116,-16196,-644,-987,-91,-124
1894,807,768,890,742,130,4100,-16132,-604,-986,-97,-105
1897,804,767,894,741,134,4136,-16196,-692,-976,-98,-111
1900,806,766,891,745,128,4160,-16232,-688,-951,-88,-137
1903,804,765,886,739,129,4172,-16288,-572,-962,-108,-97
1906,805,768,887,741,128,4096,-16200,-728,-944,-80,-106
1909,806,769,884,740,130,4204,-16064,-564,-969,-116,-88
1912,810,766,892,746,128,4212,-16132,-688,-957,-103,-97
1915,803,763,893,735,129,4308,-16228,-764,-949,-106,-105
1918,802,765,885,741,133,4084,-16180,-592,-965,-78,-94
1921,806,765,891,745,129,4184,-16164,-668,-938,-92,-101
1924,805,774,890,742,132,4088,-16120,-660,-939,-73,-78
1927,803,768,895,741,128,4268,-16132,-620,-962,-49,-79
1930,804,768,889,742,127,4172,-16156,-568,-967,-37,-62
1933,806,763,893,747,128,4228,-16156,-508,-978,-23,-80
1936,811,767,892,745,129,4256,-16188,-648,-980,-48,-75
1939,810,767,896,743,129,4200,-16096,-548,-946,-17,-79
1942,810,767,894,742,129,4220,-16076,-664,-981,-17,-68
1945,811,765,890,735,130,4212,-16120,-572,-943,8,-62
1948,813,767,889,742,129,4184,-16068,-488,-979,-6,-94
1951,813,768,896,744,130,4268,-16172,-676,-939,-4,-93
1954,805,765,894,740,137,4188,-16184,-676,-944,-6,-72
1957,807,762,887,739,128,4300,-16204,-636,-942,-26,-75
1960,807,762,896,740,128,4156,-16204,-524,-945,-23,-73
1963,805,763,896,738,129,4308,-16124,-552,-932,-18,-59
1966,805,762,895,740,134,4192,-16156,-624,-947,-20,-65
1969,805,759,894,741,130,4204,-16136,-580,-934,-27,-82
1972,809,759,896,740,130,4148,-16160,-484,-915,-21,-81
1975,801,755,892,738,129,4256,-16176,-580,-937,-37,-65
1978,807,759,897,748,130,4228,-16204,-576,-928,-32,-69
1981,807,762,892,743,129,4240,-16080,-636,-935,-26,-93
1984,806,757,901,742,129,4304,-16220,-588,-930,13,-68
1987,809,759,891,747,129,4236,-16188,-448,-915,24,-103
1990,809,759,893,747,128,4308,-16208,-536,-907,-12,-123
1993,801,760,894,747,129,4284,-16164,-484,-927,-16,-99
1996,806,759,887,739,129,4352,-16112,-480,-890,-10,-124
1999,816,758,894,743,133,4348,-16224,-516,-899,11,-132
2002,816,761,893,739,129,4344,-16156,-488,-909,87,-142
2005,814,758,892,743,128,4264,-16132,-520,-869,139,-121
2008,814,771,887,745,128,4272,-16044,-580,-862,154,-134
2011,813,759,895,751,132,4432,-16136,-552,-871,150,-136
2014,807,765,890,743,129,4196,-16092,-544,-844,125,-123
2017,811,766,892,749,129,4272,-16132,-500,-849,126,-120
2020,809,762,891,744,131,4272,-16212,-576,-838,119,-118
2023,808,766,887,742,129,4264,-16208,-804,-870,136,-140
2026,803,759,895,740,128,4308,-16080,-600,-892,84,-173
2029,810,768,896,750,130,4124,-16228,-640,-916,172,-221
2032,809,767,894,742,130,4176,-16112,-524,-911,292,-198
2035,805,768,893,739,131,4352,-16168,-672,-876,411,-158
2038,809,761,895,739,130,4216,-16196,-588,-905,410,-174
2041,803,763,895,739,128,4204,-16196,-640,-920,405,-164
2044,807,762,896,742,133,4300,-16252,-740,-914,458,-179
2047,807,764,890,738,133,4092,-16288,-636,-936,442,-197
2050,808,767,893,743,129,4204,-16288,-692,-950,375,-177
2053,804,766,896,741,128,4124,-16304,-600,-942,325,-194
2056,805,765,895,743,128,4184,-16176,-548,-928,280,-197
2059,804,763,894,741,130,4172,-16224,-732,-912,228,-168
2062,806,762,892,746,128,4208,-16092,-720,-879,205,-165
2065,802,762,896,742,132,4276,-16244,-656,-876,222,-157
2068,806,767,895,743,131,4192,-16228,-676,-842,213,-152
2071,805,759,896,739,128,4204,-16196,-560,-846,235,-162
2074,803,766,889,748,129,4264,-16228,-556,-851,266,-159
2077,802,770,894,747,129,4188,-16208,-532,-813,301,-145
2080,799,762,891,743,134,4340,-16172,-608,-772,376,-133
2083,803,766,891,749,130,4272,-16088,-744,-759,385,-141
2086,801,765,893,747,133,4120,-16232,-568,-698,514,-152
2089,801,761,885,752,131,4232,-16232,-584,-648,558,-94
2092,795,759,884,751,129,4224,-16200,-644,-663,589,-132
2095,798,758,880,752,135,4136,-16148,-596,-591,678,-89
2098,799,763,884,752,129,4200,-16084,-520,-572,632,-85
2101,799,756,884,750,129,4124,-16156,-520,-594,560,-105
2104,802,758,889,751,131,4024,-16068,-492,-558,521,-103
2107,799,758,889,747,132,4012,-16044,-364,-566,530,-106
2110,805,763,891,750,138,4148,-15988,-372,-568,539,-95
2113,803,757,892,750,138,3960,-15900,-308,-561,459,-74
2116,807,759,890,746,131,4016,-16012,-496,-574,406,-72
2119,806,783,895,742,134,4128,-15924,-456,-598,460,-22
2122,805,767,895,742,130,3976,-15840,-424,-580,340,-28
2125,811,770,889,743,135,4028,-15904,-320,-589,305,-11
2128,801,768,893,741,131,4136,-15876,-356,-585,449,10
2131,807,771,891,743,133,4024,-15884,-480,-544,338,48
2134,814,778,887,743,135,3896,-15896,-372,-575,168,42
2137,813,773,896,738,135,4008,-15904,-600,-502,38,139
2140,811,775,892,741,131,4160,-15760,-204,-593,353,64
2143,810,781,890,733,132,4232,-15904,-552,-615,410,63
2146,811,778,891,737,130,4172,-15852,-512,-673,464,-2
2149,803,781,895,741,130,4196,-15904,-540,-727,366,-10
2152,810,779,895,741,131,4168,-16040,-544,-719,224,-19
2155,807,781,891,739,137,4164,-16040,-536,-720,199,-4
2158,813,775,893,738,133,4332,-15856,-648,-735,325,-8
2161,813,777,898,737,133,4264,-16040,-424,-796,380,-58
2164,813,770,887,738,135,4224,-16048,-472,-821,382,-93
2167,814,774,892,738,133,4108,-16004,-512,-827,332,-121
2170,811,775,889,741,132,4176,-16020,-484,-847,361,-136
2173,812,779,889,746,137,4108,-16072,-424,-889,267,-181
2176,805,773,891,743,135,4104,-16060,-688,-905,138,-171
2179,806,778,884,746,129,4152,-16048,-472,-872,229,-143
2182,804,782,889,743,131,4124,-16056,-620,-874,291,-113
2185,807,779,887,746,128,4196,-16016,-532,-906,304,-134
2188,808,774,891,742,137,4240,-16056,-428,-923,306,-127
2191,803,769,903,739,130,4076,-15980,-636,-970,180,-122
2194,813,769,893,739,134,4056,-15988,-360,-974,200,-119
2197,806,768,890,745,134,4136,-16040,-460,-973,187,-98
2200,812,769,891,746,136,4220,-16140,-516,-1010,82,-110
2203,805,773,885,739,133,4076,-16028,-532,-1029,18,-108
2206,809,772,887,741,131,4220,-16044,-456,-1028,1,-111
2209,809,770,887,742,130,4172,-15984,-560,-1044,-65,-78
2212,804,768,890,745,134,4268,-16036,-500,-1036,-87,-92
2215,806,774,886,739,140,4252,-16088,-472,-1042,-138,-65
2218,811,769,897,743,135,4236,-16052,-632,-1039,-207,-66
2221,809,768,890,736,138,4236,-16164,-544,-1048,-212,-84
2224,811,770,891,742,129,4248,-16104,-580,-1047,-242,-77
2227,811,770,887,741,130,4256,-16056,-584,-1080,-247,-95
2230,812,769,886,742,134,4276,-16040,-672,-1068,-246,-104
2233,807,766,887,745,135,4316,-16088,-540,-1072,-229,-100
2236,807,769,890,746,138,4352,-16136,-700,-1092,-196,-109
2239,815,791,893,747,136,4312,-16152,-620,-1083,-146,-99
2242,814,767,892,742,133,4332,-16228,-820,-1115,-165,-108
2245,811,770,891,745,134,4304,-16176,-696,-1107,-128,-108
2248,814,766,894,748,132,4156,-16228,-756,-1115,-173,-118
2251,813,765,895,750,138,4076,-16112,-648,-1141,-175,-106
2254,811,765,890,751,140,4176,-16124,-680,-1167,-206,-79
2257,811,762,893,749,134,4148,-16108,-816,-1152,-278,-76
2260,811,763,888,749,133,4088,-16132,-816,-1136,-293,-103
2263,812,763,889,754,135,4124,-16012,-676,-1175,-333,-80
2266,811,763,891,751,137,4108,-16072,-716,-1146,-364,-84
2269,811,755,891,748,132,4132,-16160,-640,-1152,-397,-85
2272,813,759,887,752,132,4180,-16004,-872,-1157,-378,-106
2275,807,757,892,749,130,4220,-16080,-636,-1167,-388,-72
2278,815,754,891,749,133,4180,-16000,-692,-1130,-381,-99
2281,810,762,890,752,134,4132,-16124,-804,-1149,-339,-78
2284,816,754,887,748,139,4152,-16040,-740,-1113,-355,-119
2287,813,754,883,750,142,4112,-16044,-816,-1128,-336,-85
2290,810,753,890,751,138,4132,-16112,-796,-1091,-350,-102
2293,811,756,883,745,137,4072,-16132,-816,-1088,-319,-95
2296,813,755,887,746,134,4104,-16128,-656,-1062,-338,-121
2299,813,755,893,747,142,4048,-16156,-580,-1064,-329,-104
2302,810,758,887,745,134,4080,-16080,-760,-1023,-356,-126
2305,809,766,893,747,133,4108,-16100,-764,-1003,-362,-103
2308,810,757,884,743,135,4120,-16064,-768,-1006,-380,-95
2311,811,762,881,741,133,4008,-16092,-664,-1015,-418,-128
2314,807,767,887,747,137,4188,-16204,-700,-944,-348,-94
2317,807,765,893,742,137,4184,-16192,-756,-973,-366,-102
2320,810,771,890,736,133,4212,-16224,-788,-925,-356,-75
2323,807,767,893,741,139,4240,-16184,-696,-934,-409,-102
2326,811,768,894,742,131,4160,-16160,-760,-907,-357,-98
2329,803,765,893,744,131,4152,-16224,-720,-912,-358,-69
2332,815,768,895,742,138,4144,-16152,-720,-861,-374,-72
2335,808,768,886,742,134,4152,-16100,-816,-896,-375,-98
2338,812,768,887,738,138,4204,-16140,-684,-845,-330,-88
2341,807,767,892,747,135,4124,-16080,-680,-875,-329,-76
2344,810,771,908,744,130,4264,-16180,-628,-856,-328,-86
2347,811,767,890,745,138,4064,-16136,-520,-883,-297,-71
2350,812,765,890,741,137,4184,-16136,-612,-817,-284,-94
2353,815,769,886,745,135,4268,-16196,-620,-841,-295,-59
2356,809,767,895,743,141,4248,-16120,-568,-838,-258,-78
2359,811,772,891,743,138,4084,-16200,-536,-824,-244,-92
2362,813,770,910,742,138,4092,-16120,-572,-843,-213,-111
2365,810,769,898,743,129,4144,-15996,-512,-800,-236,-92
2368,811,768,892,745,134,4108,-16196,-672,-853,-251,-112
2371,816,768,891,747,135,4264,-16200,-596,-848,-206,-119
2374,812,768,894,756,135,4492,-16124,-524,-900,-99,-128
2377,800,769,893,748,137,4320,-16080,-516,-917,273,-186
2380,806,768,899,747,134,4420,-16160,-496,-1019,537,-314
2383,806,767,894,747,131,3948,-16276,-624,-899,222,-203
2386,801,764,893,749,137,4028,-16100,-588,-936,-52,-231
2389,809,766,894,751,133,3896,-16220,-700,-809,-152,-117
2392,804,762,891,752,139,4204,-16164,-492,-889,-1,-157
2395,802,767,895,754,140,4264,-16196,-380,-851,34,-116
2398,814,765,891,750,138,4144,-16260,-424,-918,-111,-124
2401,806,766,885,751,140,4144,-16272,-644,-843,-108,-114
2404,807,769,901,745,138,4084,-16120,-556,-879,-148,-123
2407,805,769,899,748,135,4200,-16112,-528,-857,-127,-97
2410,807,770,890,751,139,4140,-16104,-484,-898,-187,-95
2413,803,759,893,747,135,4144,-16172,-436,-877,-210,-94
2416,810,765,893,743,137,4192,-16080,-392,-842,-166,-64
2419,806,761,891,745,142,4224,-16072,-380,-849,-143,-85
2422,807,763,894,745,134,4336,-16048,-400,-833,-162,-88
2425,806,767,890,745,140,4104,-16016,-308,-864,-170,-70
2428,804,768,891,745,128,4144,-15956,-336,-830,-153,-100
2431,807,768,887,745,139,4168,-16064,-360,-821,-110,-65
2434,800,767,892,745,137,4180,-16060,-244,-810,-93,-67
2437,805,767,891,757,139,4152,-15820,-372,-818,-28,-43
2440,791,770,895,743,138,4256,-15960,-380,-812,-7,-44
2443,810,768,895,737,133,4360,-16028,-368,-834,30,-50
2446,804,769,892,740,133,4236,-16072,-392,-857,27,-82
2449,811,774,896,738,128,4348,-15928,-304,-875,32,-33
2452,803,773,898,747,135,4348,-15952,-300,-916,59,-76
2455,808,771,895,735,142,4240,-16012,-348,-947,24,-65
2458,812,771,895,747,137,4332,-15960,-264,-960,48,-75
2461,811,774,891,746,137,4348,-16000,-456,-987,22,-76
2464,811,774,895,748,134,4408,-16020,-480,-1038,-30,-59
2467,806,778,896,742,135,4464,-16048,-476,-1068,-68,-85
2470,810,769,896,745,134,4292,-16084,-472,-1108,-44,-89
2473,810,781,884,751,139,4324,-16136,-384,-1142,-110,-139
2476,803,770,896,747,135,4448,-16220,-620,-1160,-88,-127
2479,805,774,893,743,137,4580,-16164,-500,-1189,9,-162
2482,811,777,890,749,133,4532,-16188,-276,-1270,118,-250
2485,801,766,893,749,137,4464,-16196,-384,-1231,75,-258
2488,805,769,893,749,138,4360,-16216,-564,-1238,-7,-261
2491,810,766,893,752,138,4436,-16300,-652,-1182,2,-224
2494,812,769,893,754,134,4372,-16228,-484,-1178,29,-199
2497,809,768,890,747,138,4464,-16120,-452,-1154,69,-214
2500,825,772,893,751,134,4380,-16320,-464,-1185,82,-250
2503,805,771,892,749,141,4336,-16276,-504,-1118,77,-184
2506,807,771,891,751,134,4288,-16236,-456,-1119,85,-204
2509,809,769,890,752,142,4288,-16256,-504,-1105,88,-164
2512,803,770,898,751,137,4300,-16160,-412,-1078,77,-154
2515,805,771,895,747,142,4324,-16216,-412,-1093,86,-157
2518,806,774,895,747,135,4324,-16296,-492,-1069,93,-129
2521,803,774,893,746,137,4184,-16136,-436,-1063,108,-114
2524,806,774,893,751,133,4308,-16132,-500,-1063,106,-112
2527,803,776,887,741,137,4276,-16180,-416,-1036,101,-96
2530,803,774,899,747,133,4288,-16196,-500,-1023,127,-117
2533,805,777,887,749,133,4256,-16128,-464,-1023,148,-80
2536,802,774,890,745,143,4328,-16224,-524,-997,123,-73
2539,805,777,887,746,135,4256,-16052,-576,-981,154,-57
2542,803,771,895,749,135,4292,-16112,-440,-985,147,-74
2545,796,770,893,741,135,4308,-16080,-484,-961,158,-67
2548,803,769,893,748,138,4204,-16156,-432,-981,188,-61
2551,806,770,887,752,138,4212,-16168,-500,-976,176,-50
2554,803,768,889,747,135,4256,-16100,-560,-954,156,-71
2557,800,774,890,746,134,4300,-16120,-420,-960,164,-38
2560,804,769,894,742,133,4368,-16004,-588,-964,149,-46
2563,809,770,896,749,141,4324,-16024,-412,-960,143,-51
2566,806,771,894,746,142,4232,-15972,-528,-975,159,-46
2569,803,777,890,750,138,4360,-16044,-616,-974,156,-64
2572,804,774,889,748,139,4308,-16056,-620,-985,119,-72
2575,803,768,890,743,138,4272,-16192,-528,-1017,136,-59
2578,805,767,887,749,137,4316,-15920,-644,-1031,92,-85
2581,801,768,890,746,131,4280,-16016,-632,-1040,118,-79
2584,802,771,891,747,138,4340,-16032,-640,-1049,108,-69
2587,810,773,893,749,138,4300,-16060,-560,-1029,216,-92
2590,809,768,894,749,138,4208,-16132,-576,-1063,171,-84
2593,807,770,889,750,135,4308,-16160,-640,-1071,149,-97
2596,803,765,893,745,138,4260,-16200,-568,-1071,157,-67
2599,803,777,894,747,132,4296,-16100,-676,-1060,200,-93
2602,807,777,890,747,134,4296,-16140,-796,-1091,172,-103
2605,805,778,885,746,138,4288,-16116,-732,-1111,134,-106
2608,805,777,889,747,143,4280,-16124,-692,-1112,144,-102
2611,802,773,893,746,139,4292,-16216,-576,-1089,118,-90
2614,803,772,887,749,139,4296,-16136,-724,-1106,116,-73
2617,804,770,891,746,135,4200,-16096,-708,-1100,104,-130
2620,802,769,889,748,134,4360,-16180,-648,-1097,105,-90
2623,802,771,887,743,143,4308,-16044,-720,-1071,124,-121
2626,805,770,887,743,138,4288,-16152,-604,-1088,98,-109
2629,809,770,889,747,135,4328,-16112,-568,-1074,121,-101
2632,805,766,893,743,137,4220,-16128,-560,-1074,99,-96
2635,807,768,893,748,133,4168,-16084,-776,-1117,72,-151
2638,802,767,893,741,143,4196,-16080,-672,-1086,70,-121
2641,802,766,889,749,137,4256,-16140,-752,-1077,61,-106
2644,807,771,885,747,139,4152,-16064,-792,-1041,12,-110
2647,799,770,893,746,139,4304,-16128,-712,-1054,-7,-82
2650,802,767,895,750,135,4332,-16156,-764,-1044,0,-89
2653,806,769,893,748,138,4260,-15996,-800,-1038,10,-78
2656,806,769,887,742,142,4220,-15992,-588,-1058,31,-83
2659,805,769,893,749,142,4224,-16024,-524,-1067,-3,-100
2662,802,770,892,747,138,4332,-16052,-660,-1058,-5,-101
2665,809,767,892,746,134,4172,-15952,-496,-1034,-29,-99
2668,807,769,887,752,136,4232,-16148,-724,-1018,-15,-74
2671,807,769,895,748,138,4316,-16060,-596,-1031,14,-86
2674,811,763,892,750,139,4320,-16068,-716,-999,78,-63
2677,801,765,889,749,139,4228,-16060,-632,-1021,72,-96
2680,805,766,884,747,134,4328,-16160,-784,-1004,98,-79
2683,804,767,887,752,139,4352,-16124,-708,-1012,102,-89
2686,805,763,890,751,134,4200,-16072,-876,-1007,111,-76
2689,802,767,893,758,140,4232,-16112,-688,-986,90,-84
2692,801,767,890,750,138,4172,-16116,-764,-974,68,-77
2695,807,767,893,752,143,4140,-16064,-772,-996,114,-88
2698,816,768,890,762,138,4100,-16100,-732,-1007,62,-102
2701,803,765,887,747,139,4072,-16124,-816,-963,98,-67
2704,803,766,887,751,134,4132,-16100,-764,-969,79,-84
2707,803,763,890,751,137,4184,-16100,-764,-973,74,-67
2710,803,766,891,748,138,4160,-16164,-740,-976,65,-53
2713,809,774,894,743,135,4204,-16144,-836,-952,59,-65
2716,803,766,894,752,135,4236,-16132,-752,-964,47,-69
2719,813,763,890,750,141,4192,-16132,-884,-922,89,-62
2722,805,769,894,747,137,4096,-16192,-756,-945,66,-72
2725,810,763,895,749,143,4084,-16148,-856,-933,93,-71
2728,805,765,893,750,141,4236,-16140,-792,-905,72,-69
2731,808,769,890,749,142,4124,-16232,-896,-893,97,-84
2734,805,769,891,751,141,4272,-16168,-820,-874,99,-80
2737,807,769,895,742,137,4200,-16160,-724,-868,117,-66
2740,805,772,894,746,139,4160,-16136,-712,-845,122,-56
2743,806,768,891,746,137,4164,-16100,-784,-835,118,-81
2746,802,768,895,746,139,4156,-16152,-832,-816,120,-92
2749,806,771,895,746,141,4268,-16112,-700,-817,109,-69
2752,807,769,892,743,133,4228,-16204,-732,-804,121,-84
2755,807,768,890,744,137,4244,-16140,-776,-792,102,-87
2758,807,770,890,745,135,4204,-16096,-720,-771,91,-92
2761,806,767,889,738,135,4252,-16160,-704,-777,73,-79
2764,810,767,893,735,135,4204,-16088,-676,-763,86,-92
2767,808,768,895,743,134,4196,-16104,-644,-784,60,-86
2770,806,769,895,747,135,4208,-16120,-640,-790,47,-87
2773,805,769,888,749,134,4164,-16148,-740,-767,48,-67
2776,805,770,891,746,134,4192,-16032,-656,-772,68,-68
2779,806,761,887,746,135,4228,-16152,-612,-760,45,-74
2782,806,767,895,757,141,4168,-16008,-728,-772,52,-67
2785,803,765,888,745,135,4328,-16120,-592,-758,62,-67
2788,803,763,889,753,138,4188,-16084,-672,-756,85,-66
2791,809,764,890,746,134,4172,-16116,-600,-750,75,-47
2794,806,768,885,747,141,4176,-16156,-500,-741,75,-62
2797,802,762,890,749,138,4272,-16080,-808,-741,72,-36
2800,807,762,891,746,135,4168,-16004,-500,-756,93,-62
2803,802,768,889,749,138,4328,-16084,-652,-744,92,-51
2806,814,766,893,748,134,4292,-16076,-508,-754,74,-41
2809,801,765,888,746,135,4380,-16056,-636,-739,75,-41
2812,803,766,887,747,138,4336,-16040,-576,-761,71,-47
2815,806,765,894,743,140,4212,-16004,-500,-750,68,-73
2818,803,766,891,745,137,4224,-16028,-560,-745,44,-61
2821,811,765,890,755,134,4308,-15980,-724,-769,49,-30
2824,807,766,886,742,134,4312,-16104,-608,-766,23,-43
2827,805,762,891,745,138,4288,-16008,-512,-748,29,-53
2830,809,768,887,742,143,4224,-16068,-552,-787,21,-48
2833,807,768,893,745,135,4248,-16020,-600,-782,-19,-54
2836,806,767,910,745,141,4264,-16004,-552,-810,2,-45
2839,803,760,890,757,131,4256,-16020,-520,-816,-39,-57
2842,805,774,902,746,136,4212,-16076,-568,-830,-18,-56
2845,806,763,894,745,138,4344,-16044,-496,-856,-52,-64
2848,807,767,891,745,133,4288,-16036,-580,-880,-55,-52
2851,812,768,887,743,134,4304,-16068,-624,-869,-55,-69
2854,811,767,899,743,129,4236,-16048,-540,-905,-82,-60
2857,806,763,894,764,133,4340,-16076,-560,-919,-103,-37
2860,806,767,892,746,142,4320,-16152,-560,-931,-98,-64
2863,811,768,891,751,135,4296,-16004,-692,-935,-93,-67
2866,807,770,895,747,141,4248,-16088,-376,-919,-115,-66
2869,802,762,893,746,133,4348,-16000,-672,-955,-112,-54
2872,804,765,894,752,138,4280,-16096,-612,-931,-123,-92
2875,806,763,895,746,135,4352,-16068,-560,-969,-138,-75
2878,804,763,885,747,134,4292,-16112,-448,-945,-111,-81
2881,806,763,887,745,137,4344,-16020,-488,-941,-124,-58
2884,810,766,885,752,134,4272,-16008,-348,-966,-119,-82
2887,805,764,893,749,138,4256,-16076,-540,-960,-110,-66
2890,806,766,890,741,135,4196,-16068,-556,-923,-131,-62
2893,810,762,883,751,138,4360,-16064,-528,-928,-125,-81
2896,810,761,897,746,137,4388,-15976,-496,-935,-133,-72
2899,813,768,897,750,137,4308,-16132,-556,-919,-124,-77
2902,814,766,893,741,133,4296,-16080,-544,-916,-126,-66
2905,806,767,887,741,134,4228,-16128,-556,-939,-119,-63
2908,809,767,891,742,138,4308,-16108,-520,-909,-97,-82
2911,806,770,892,747,141,4304,-16144,-624,-923,-128,-53
2914,814,768,890,747,139,4368,-16156,-588,-922,-127,-49
2917,806,768,892,752,138,4312,-16100,-596,-927,-96,-60
2920,815,768,895,747,134,4240,-16124,-568,-931,-114,-38
2923,807,768,896,745,133,4244,-16092,-668,-952,-150,-46
2926,811,768,888,745,135,4224,-16184,-404,-942,-99,-29
2929,805,769,889,748,139,4288,-16112,-568,-943,-95,-23
2932,813,770,890,746,134,4460,-16068,-596,-971,-109,-31
2935,799,768,891,749,139,4312,-16168,-644,-954,-118,-30
2938,809,771,896,740,135,4336,-16176,-380,-946,-117,-29
2941,805,759,895,743,141,4356,-16200,-492,-968,-105,-46
2944,807,758,895,746,136,4304,-16168,-572,-966,-127,-47
2947,808,770,895,742,135,4320,-16076,-540,-971,-114,-45
2950,802,765,891,749,135,4332,-16176,-612,-941,-104,-51
2953,804,765,893,750,135,4288,-16236,-484,-976,-140,-56
2956,799,768,893,752,134,4280,-16176,-480,-951,-124,-39
2959,801,765,890,752,137,4280,-16196,-560,-941,-106,-71
2962,804,770,886,752,134,4240,-16180,-472,-941,-120,-63
2965,806,764,891,749,135,4272,-16120,-448,-898,-92,-50
2968,806,778,894,751,137,4316,-16036,-484,-896,-102,-48
2971,794,757,895,751,134,4232,-16108,-544,-904,-68,-64
2974,811,767,887,753,138,4272,-16068,-640,-875,-66,-54
2977,814,762,896,750,134,4264,-16076,-412,-884,-37,-55
2980,815,756,894,748,134,4308,-16076,-368,-857,-44,-50
2983,810,763,912,749,139,4332,-16068,-608,-873,-7,-50
2986,807,769,893,751,131,4172,-16056,-532,-866,-12,-50
2989,809,763,893,747,132,4268,-16068,-520,-873,-11,-36
2992,805,762,887,747,134,4188,-16076,-612,-861,19,-22
2995,808,766,897,747,137,4296,-16072,-512,-867,1,-49
2998,810,768,890,749,134,4200,-16044,-552,-899,24,-17
3001,810,769,898,747,133,4276,-16036,-636,-906,14,-35
3004,812,771,896,746,137,4204,-16036,-500,-921,8,-27
3007,806,767,896,749,135,4252,-16204,-584,-933,19,1
3010,807,769,895,748,141,4280,-16108,-572,-946,16,-52
3013,806,772,895,745,138,4184,-16152,-448,-952,25,-53
3016,810,775,889,747,141,4264,-16168,-560,-951,30,-10
3019,810,775,895,743,138,4128,-15992,-476,-985,5,-53
3022,807,772,895,749,134,4272,-16032,-544,-990,9,-65
3025,806,773,888,741,134,4220,-16024,-556,-983,-26,-65
3028,806,769,895,741,136,4204,-16024,-556,-1017,-31,-79
3031,802,774,886,743,141,4260,-16100,-496,-998,-1,-30
3034,805,772,890,748,141,4280,-16128,-556,-1010,-32,-56
3037,803,769,889,749,140,4264,-16128,-588,-1026,-33,-53
3040,807,771,897,743,138,4256,-16092,-516,-1042,-16,-48
3043,805,775,890,742,134,4352,-16112,-500,-1023,12,-54
3046,806,772,891,742,139,4164,-16116,-528,-1051,1,-44
3049,805,768,894,743,141,4168,-16040,-468,-1057,-19,-28
3052,796,772,890,745,134,4176,-16004,-572,-1057,14,-44
3055,805,770,895,743,140,4240,-16032,-608,-1038,6,-10
3058,810,773,893,741,139,4240,-16064,-576,-1054,6,-20
3061,807,773,893,747,134,4232,-16020,-540,-1032,26,1
3064,811,771,891,746,133,4212,-16136,-484,-1030,33,13
3067,810,778,895,745,137,4180,-15980,-592,-1057,43,-18
3070,809,771,896,745,141,4304,-16048,-688,-1051,67,8
3073,812,774,891,746,138,4228,-16112,-628,-1038,48,13
3076,801,771,895,739,135,4232,-16068,-544,-1069,33,12
3079,807,775,893,747,141,4168,-16120,-584,-1050,47,18
3082,811,770,887,747,139,4176,-16032,-716,-1037,31,23
3085,806,773,889,748,142,4100,-16040,-676,-1053,12,-2
3088,805,773,893,746,135,4332,-16060,-592,-1044,21,25
3091,807,775,892,747,138,4256,-16068,-604,-1023,1,41
3094,806,768,892,743,140,4180,-16136,-776,-1044,-9,28
3097,808,770,895,745,142,4300,-16080,-588,-1054,-17,28
3100,806,771,893,745,142,4172,-16096,-592,-1037,-27,9
3103,807,772,891,750,139,4188,-16168,-612,-1011,-30,39
3106,809,771,889,749,137,4376,-16160,-596,-1014,-6,26
3109,807,771,895,748,141,4280,-16108,-644,-996,2,43
3112,807,767,891,749,138,4212,-16072,-512,-987,2,9
3115,806,768,892,746,133,4304,-16140,-716,-948,-3,11
3118,806,767,885,747,142,4200,-16112,-688,-972,-2,3
3121,807,765,893,748,137,4360,-16100,-748,-955,36,21
3124,807,770,894,749,136,4300,-16100,-672,-954,36,14
3127,806,770,896,746,138,4232,-16092,-656,-938,54,-23
3130,804,769,891,749,134,4216,-16008,-716,-973,29,4
3133,807,769,894,746,137,4348,-16144,-608,-965,31,-10
3136,809,771,895,747,138,4244,-16092,-776,-958,26,3
3139,805,774,890,752,138,4268,-16076,-576,-957,27,-12
3142,808,774,890,747,139,4232,-16012,-808,-953,31,3
3145,803,771,896,749,138,4368,-16132,-592,-964,-4,-9
3148,808,777,894,751,143,4236,-16032,-612,-989,-18,-2
3151,809,776,894,751,135,4248,-15964,-660,-951,-10,-12
3154,804,773,890,746,135,4300,-16108,-808,-964,-47,-21
3157,803,771,893,752,141,4276,-16160,-612,-986,-71,-50
3160,803,772,893,746,137,4284,-16096,-772,-985,-58,-32
3163,807,771,892,743,141,4352,-16160,-728,-986,-77,-40
3166,799,770,893,749,142,4288,-16168,-640,-1004,-84,-39
3169,803,776,891,752,137,4268,-16080,-684,-970,-95,-29
3172,806,770,887,742,139,4288,-16056,-544,-993,-91,-49
3175,811,771,889,745,134,4256,-16096,-612,-962,-111,-48
3178,802,769,886,746,134,4324,-16024,-772,-970,-76,-40
3181,803,769,889,748,137,4320,-16152,-592,-949,-78,-48
3184,809,773,894,749,138,4464,-16108,-692,-947,-59,-39
3187,807,768,889,749,141,4364,-16176,-644,-938,-80,-43
3190,806,768,885,747,135,4328,-16124,-668,-895,-66,-24
3193,805,768,892,751,135,4316,-16228,-764,-913,-49,-35
3196,806,766,893,751,139,4344,-16132,-608,-893,-61,-45
3199,811,765,891,746,135,4308,-16144,-704,-890,-30,-52
3202,806,764,887,749,135,4212,-16116,-576,-878,-72,-34
3205,816,767,894,750,137,4296,-16076,-764,-859,-48,-28
3208,810,767,889,752,134,4140,-16116,-804,-876,-64,-60
3211,807,765,896,747,135,4452,-16084,-668,-855,-26,-52
3214,804,767,893,749,137,4272,-16172,-760,-859,-56,-51
3217,805,765,893,751,135,4232,-16120,-644,-860,-55,-49
3220,809,766,894,749,140,4300,-16104,-856,-852,-68,-28
3223,804,767,895,749,139,4216,-16164,-740,-868,-61,-62
3226,806,766,889,750,135,4192,-16108,-708,-833,-57,-32
3229,801,759,886,747,137,4340,-16132,-832,-854,-65,-53
3232,803,760,890,752,137,4292,-16060,-612,-856,-42,-62
3235,806,751,893,747,140,4296,-16124,-736,-849,-79,-45
3238,805,750,889,749,135,4172,-16100,-652,-859,-60,-52
3241,817,761,893,751,141,4184,-16016,-684,-857,-74,-49
3244,807,763,902,752,137,4152,-16184,-764,-846,-84,-52
3247,811,767,882,747,143,4104,-16092,-656,-871,-87,-54
3250,800,766,893,751,142,4216,-16092,-740,-856,-74,-48
3253,803,767,889,747,137,4220,-16184,-684,-853,-78,-56
3256,807,768,887,747,137,4196,-16128,-524,-853,-66,-56
3259,804,766,894,749,135,4164,-16168,-636,-869,-61,-74
3262,806,767,889,745,134,4120,-16160,-568,-859,-83,-73
3265,805,767,893,745,139,4092,-16160,-576,-851,-56,-37
3268,808,771,889,746,139,4180,-16100,-620,-831,-56,-75
3271,806,768,889,750,134,4076,-16036,-592,-848,-56,-51
3274,815,762,893,748,144,4204,-16200,-712,-829,-52,-53
3277,802,765,891,746,134,4088,-16092,-652,-832,-76,-66
3280,809,765,889,745,137,4016,-16104,-632,-830,-55,-51
3283,815,763,889,749,133,4044,-16164,-628,-808,-65,-36
3286,804,767,896,748,134,4252,-16192,-604,-843,-57,-45
3289,801,763,895,743,137,4112,-16104,-588,-819,-75,-50
3292,806,767,891,753,139,4172,-16192,-640,-819,-39,-56
3295,811,765,892,751,137,4236,-16124,-656,-828,-55,-54
3298,805,771,892,751,138,4264,-16080,-404,-816,-21,-63
3301,805,767,896,755,133,4084,-16060,-536,-820,-43,-68
3304,806,764,895,743,134,4120,-16188,-548,-794,-10,-46
3307,804,773,891,750,136,4084,-16100,-632,-819,-14,-64
3310,806,767,893,746,140,4296,-16064,-656,-817,-4,-59
3313,803,768,889,750,142,4184,-16000,-500,-810,8,-82
3316,807,769,887,737,141,4184,-16168,-468,-801,-5,-66
3319,803,765,893,746,132,4176,-16164,-692,-808,-17,-61
3322,810,767,893,746,137,4160,-16072,-532,-808,-35,-60
3325,811,766,887,743,138,4236,-16116,-572,-815,-30,-64
3328,804,767,890,746,135,4180,-16064,-452,-785,-16,-79
3331,803,768,896,751,133,4180,-16168,-592,-810,-33,-86
3334,804,767,886,747,139,4368,-16128,-476,-820,-42,-86
3337,806,773,892,743,137,4280,-16116,-716,-822,-52,-54
3340,808,770,895,747,135,4268,-16088,-716,-821,-39,-83
3343,807,769,895,748,139,4244,-16100,-544,-831,-12,-70
3346,811,767,899,746,137,4288,-16028,-512,-830,-27,-103
3349,802,768,894,749,138,4312,-16128,-488,-836,-10,-57
3352,806,768,893,747,135,4420,-16076,-656,-830,-5,-68
3355,807,769,889,744,139,4256,-16188,-740,-828,6,-69
3358,795,764,906,746,138,4148,-16072,-616,-825,13,-61
3361,806,766,891,747,141,4292,-16116,-560,-833,26,-62
3364,805,770,894,745,135,4240,-15996,-648,-832,45,-67
3367,806,768,891,745,131,4316,-16140,-596,-851,15,-50
3370,806,768,891,751,135,4320,-16088,-580,-829,40,-70
3373,809,769,894,747,142,4112,-16032,-556,-828,28,-54
3376,807,766,891,751,140,4364,-16072,-588,-857,33,-69
3379,800,768,891,751,138,4260,-16168,-524,-846,17,-47
3382,813,769,896,745,143,4252,-16064,-604,-841,25,-40
3385,802,768,890,747,141,4332,-16096,-592,-851,21,-51
3388,810,761,894,746,134,4364,-16140,-436,-869,34,-52
3391,805,773,890,745,139,4316,-16132,-620,-872,36,-46
3394,813,770,894,749,139,4316,-16164,-456,-869,-2,-53
3397,801,771,895,746,142,4272,-16120,-568,-862,-10,-69
3400,807,766,895,745,141,4272,-16068,-496,-869,13,-79
3403,805,767,895,747,141,4364,-16076,-508,-862,12,-53
3406,811,770,894,746,137,4188,-16116,-492,-867,9,-61
3409,805,765,895,747,139,4280,-16088,-396,-852,-29,-54
3412,814,768,894,747,134,4228,-16100,-492,-859,2,-73
3415,804,767,895,741,134,4344,-16032,-592,-853,-12,-85
3418,802,767,896,750,135,4324,-16120,-544,-862,-7,-74
3421,803,770,886,749,136,4308,-16060,-656,-840,-10,-79
3424,806,767,891,743,141,4416,-16188,-496,-835,-14,-48
3427,829,768,890,750,138,4380,-16060,-464,-831,-12,-48
3430,810,769,892,747,135,4248,-16044,-464,-835,7,-76
3433,811,768,893,743,135,4168,-16160,-576,-816,1,-63
3436,807,767,894,743,139,4380,-16092,-536,-825,-22,-74
3439,801,766,894,745,133,4284,-16124,-588,-811,12,-79
3442,808,773,895,747,140,4304,-16084,-572,-829,6,-56
3445,806,769,894,745,133,4304,-16084,-376,-848,-24,-60
3448,805,769,912,742,134,4308,-16064,-536,-840,-9,-54
3451,804,767,894,757,137,4184,-16180,-608,-855,13,-68
3454,807,766,890,745,138,4272,-16128,-460,-831,-32,-40
3457,804,771,895,744,137,4300,-16048,-492,-833,1,-72
3460,807,765,890,742,133,4312,-16016,-668,-843,-15,-71
3463,812,766,889,738,134,4324,-16092,-568,-846,-10,-81
3466,805,766,892,747,135,4268,-16116,-584,-857,-35,-61
3469,809,767,889,745,138,4292,-16028,-536,-866,-16,-68
3472,809,782,896,743,135,4232,-16072,-480,-848,-13,-55
3475,807,764,887,746,135,4324,-16096,-592,-843,-29,-80
3478,809,765,885,741,136,4248,-16028,-384,-851,-27,-57
3481,807,763,891,743,133,4292,-16124,-548,-861,-37,-55
3484,810,767,891,750,135,4196,-16028,-516,-850,-12,-42
3487,801,769,892,745,140,4180,-16112,-516,-857,-21,-40
3490,816,765,893,741,139,4276,-16032,-544,-872,-33,-50
3493,805,766,892,747,134,4336,-16068,-664,-880,-28,-56
3496,811,766,894,747,138,4228,-16032,-532,-866,-29,-44
3499,803,768,891,746,137,4188,-16176,-548,-899,-31,-63
3502,806,767,893,747,138,4212,-16128,-656,-898,-30,-58
3505,804,767,893,747,135,4220,-16136,-472,-886,-25,-48
3508,809,770,894,746,137,4236,-16056,-584,-898,-7,-52
3511,807,771,892,748,135,4220,-16148,-588,-899,-29,-59
3514,803,766,892,751,138,4212,-16004,-584,-908,-24,-36
3517,803,763,889,748,139,4268,-16140,-516,-909,-17,-55
3520,803,766,894,746,134,4216,-16124,-544,-912,-12,-42
3523,803,769,896,747,135,4212,-16028,-392,-925,-19,-58
3526,806,759,891,749,137,4240,-16052,-616,-924,-33,-35
3529,803,763,895,749,133,4292,-16040,-456,-933,-39,-46
3532,803,761,894,748,135,4236,-16024,-552,-926,-14,-63
3535,806,763,895,744,138,4220,-16048,-528,-936,-33,-52
3538,804,766,896,749,138,4268,-16104,-476,-922,-34,-39
3541,802,761,891,749,142,4216,-16112,-416,-915,-31,-63
3544,810,763,895,743,138,4116,-16072,-388,-948,-41,-44
3547,804,764,890,741,137,4160,-16000,-500,-950,-56,-58
3550,805,768,883,752,139,4216,-16008,-576,-951,-32,-42
3553,807,768,890,743,141,4148,-16088,-452,-948,-38,-42
3556,805,765,891,747,141,4180,-16056,-488,-959,-52,-55
3559,805,766,894,749,133,4196,-16052,-436,-937,-39,-41
3562,802,763,893,743,143,4184,-16076,-424,-972,-18,-45
3565,804,769,892,746,138,4240,-16160,-468,-964,-36,-46
3568,805,766,894,747,138,4264,-16000,-488,-966,-22,-46
3571,804,767,889,746,136,4188,-16052,-520,-976,-38,-72
3574,805,765,894,746,139,4272,-16028,-476,-981,-29,-62
3577,810,766,895,743,135,4216,-16068,-496,-972,-37,-78
3580,803,768,889,746,138,4236,-16156,-352,-988,-41,-78
3583,804,769,889,744,133,4212,-16136,-592,-986,-30,-74
3586,805,770,895,742,136,4192,-16224,-740,-1015,-26,-91
3589,802,768,895,743,135,4196,-16116,-532,-1004,-27,-94
3592,805,768,897,743,138,4248,-16152,-504,-990,-28,-96
3595,811,774,893,752,139,4212,-16152,-500,-1014,-26,-73
3598,805,772,895,746,137,4172,-16100,-432,-1020,-15,-97
3601,806,773,887,749,133,4264,-16076,-672,-1009,-29,-71
3604,808,773,896,747,137,4236,-16092,-580,-1035,-35,-93
3607,803,767,885,745,133,4200,-16052,-532,-1022,1,-93
3610,803,773,891,746,139,4144,-16084,-612,-1022,-27,-78
3613,804,769,890,741,135,4224,-16096,-576,-1043,-26,-72
3616,803,778,895,742,137,4208,-16040,-488,-1046,-8,-67
3619,809,774,890,746,134,4220,-16140,-484,-1030,-21,-51
3622,804,767,895,739,138,4208,-16200,-544,-1037,-14,-71
3625,803,767,895,745,135,4184,-16204,-508,-1037,-16,-44
3628,809,766,895,746,141,4260,-16216,-556,-1032,-6,-41
3631,799,766,894,752,134,4336,-16156,-636,-1035,-6,-46
3634,806,770,889,746,135,4284,-16048,-520,-1028,-34,-46
3637,804,768,895,747,138,4228,-16136,-644,-1022,-13,-9
3640,805,769,895,746,138,4312,-16136,-528,-1019,-4,-75
3643,807,770,893,739,137,4272,-16076,-468,-1017,-23,-43
3646,806,768,895,736,138,4364,-16124,-544,-1010,6,-36
3649,801,768,896,748,141,4304,-16068,-648,-1024,3,-71
3652,809,768,891,750,133,4292,-16124,-552,-1003,-18,-49
3655,805,771,891,749,135,4308,-16092,-604,-994,13,-59
3658,820,768,894,746,138,4316,-16080,-644,-1002,25,-57
3661,806,768,893,749,137,4316,-16164,-576,-981,-8,-65
3664,809,769,895,747,139,4312,-16088,-712,-994,11,-73
3667,806,767,896,746,133,4332,-16076,-740,-975,-3,-52
3670,813,768,895,746,138,4344,-16160,-532,-984,1,-66
3673,810,771,891,749,138,4324,-16024,-624,-965,21,-72
3676,809,768,895,752,135,4232,-16188,-592,-1002,19,-72
3679,803,768,891,747,133,4272,-16044,-520,-982,-3,-58
3682,811,770,896,750,133,4244,-16148,-568,-949,9,-57
3685,807,766,896,747,135,4280,-16136,-688,-989,-7,-70
3688,814,773,893,742,134,4336,-16160,-608,-970,24,-93
3691,810,769,891,746,142,4184,-16196,-696,-980,2,-65
3694,811,771,896,741,139,4208,-16192,-692,-995,9,-38
3697,805,770,891,731,134,4136,-16136,-748,-995,13,-61
3700,809,769,897,748,139,4312,-16196,-672,-1000,37,-69
3703,811,761,895,746,138,4132,-16188,-652,-953,35,-28
3706,804,765,890,743,133,4212,-16112,-512,-982,19,-52
3709,807,767,887,749,137,4248,-16052,-468,-952,32,-62
3712,802,779,890,745,134,4088,-16164,-712,-962,23,-48
3715,810,768,890,751,138,4196,-16016,-692,-952,22,-55
3718,806,769,893,747,141,4196,-16072,-636,-918,11,-31
3721,806,767,896,746,137,4176,-16080,-476,-935,49,-42
3724,806,784,885,748,139,4208,-16068,-548,-911,62,-34
3727,807,767,894,747,139,4208,-16052,-612,-878,42,-46
3730,799,767,912,741,136,4244,-16096,-580,-876,41,-29
3733,806,767,893,752,135,4276,-16108,-628,-866,52,-47
3736,804,766,896,747,139,4160,-16016,-588,-863,52,-38
3739,805,770,889,745,143,4276,-16016,-640,-847,43,-29
3742,807,768,894,743,135,4300,-16184,-680,-848,35,-41
3745,809,771,889,747,133,4236,-16124,-688,-851,36,-42
3748,803,769,895,751,135,4264,-16008,-744,-845,33,-14
3751,809,770,891,730,138,4316,-16008,-612,-878,53,-18
3754,806,776,896,746,139,4292,-16012,-792,-855,16,-43
3757,806,766,890,741,138,4204,-16048,-648,-900,34,-82
3760,805,771,891,745,141,4204,-16052,-688,-885,13,-48
3763,807,771,896,746,138,4228,-16148,-640,-888,24,-63
3766,807,770,889,748,143,4244,-16124,-544,-925,0,-45
3769,804,770,894,747,137,4176,-16128,-724,-898,-6,-48
3772,806,768,895,746,139,4272,-16044,-660,-899,-11,-40
3775,810,773,893,750,141,4248,-16048,-556,-921,-13,-55
3778,806,771,889,745,138,4208,-15940,-644,-914,-19,-65
3781,806,767,892,746,131,4296,-16080,-648,-920,-23,-52
3784,817,773,896,747,137,4320,-16124,-584,-908,-5,-31
3787,805,768,895,746,140,4276,-16008,-612,-919,-43,-73
3790,803,769,889,749,135,4184,-16000,-668,-915,-23,-75
3793,811,768,888,735,135,4232,-16072,-692,-922,-26,-48
3796,810,766,894,747,141,4292,-16108,-692,-916,-34,-61
3799,809,768,888,747,140,4116,-16168,-680,-923,0,-64
3802,803,767,891,749,142,4304,-16060,-708,-892,-46,-66
3805,811,768,895,750,137,4304,-16080,-612,-906,-16,-55
3808,806,769,889,748,140,4268,-16052,-600,-923,-6,-39
3811,809,768,892,746,135,4368,-16128,-548,-906,-34,-47
3814,805,767,893,747,136,4304,-16212,-624,-920,-18,-53
3817,809,770,895,747,135,4364,-16108,-540,-910,-42,-52
3820,811,768,896,745,138,4276,-16092,-588,-929,-5,-57
3823,807,768,897,747,139,4312,-16148,-844,-889,-57,-47
3826,812,775,896,742,135,4276,-16088,-688,-917,-49,-39
3829,805,769,896,750,135,4156,-16140,-660,-902,-56,-51
3832,806,769,894,747,135,4184,-16060,-720,-918,-40,-56
3835,801,768,898,746,139,4204,-16052,-612,-897,-74,-54
3838,804,767,894,746,138,4212,-16080,-576,-893,-79,-70
3841,809,767,895,750,138,4348,-16144,-676,-915,-61,-57
3844,807,770,891,746,139,4324,-16104,-708,-885,-82,-44
3847,811,768,895,751,139,4184,-16136,-512,-905,-85,-60
3850,804,766,890,745,139,4148,-16216,-588,-902,-74,-73
3853,805,766,895,745,138,4148,-16180,-568,-866,-97,-52
3856,806,771,895,747,135,4228,-16136,-668,-899,-94,-40
3859,805,766,897,749,139,4248,-16148,-624,-874,-102,-54
3862,806,767,886,743,137,4368,-16060,-664,-875,-72,-59
3865,805,763,889,746,139,4280,-16252,-604,-889,-92,-61
3868,800,763,891,741,134,4316,-16228,-520,-861,-69,-48
3871,803,763,895,745,140,4176,-16168,-508,-888,-72,-55
3874,805,767,894,745,133,4264,-16024,-688,-884,-93,-46
3877,806,766,893,742,137,4384,-16072,-628,-882,-71,-53
3880,807,783,896,747,135,4236,-16076,-536,-881,-56,-31
3883,806,767,894,751,140,4376,-16064,-700,-876,-64,-69
3886,810,767,894,747,139,4276,-16080,-612,-880,-80,-53
3889,805,765,891,747,138,4284,-16128,-596,-877,-60,-32
3892,808,768,891,750,133,4264,-16176,-588,-893,-69,-54
3895,811,765,894,749,141,4344,-16112,-592,-880,-70,-49
3898,801,764,895,742,142,4252,-16080,-548,-879,-35,-41
3901,803,768,897,751,137,4236,-16068,-600,-882,-66,-44
3904,810,766,895,747,138,4196,-16092,-620,-880,-71,-42
3907,809,768,894,748,140,4320,-16188,-512,-892,-80,-51
3910,812,766,896,744,137,4264,-16052,-648,-874,-82,-51
3913,812,766,889,749,139,4280,-16152,-628,-883,-78,-54
3916,809,769,896,745,141,4204,-16092,-700,-898,-97,-82
3919,809,765,897,741,133,4312,-16088,-652,-904,-94,-64
3922,807,769,887,742,134,4296,-16136,-556,-902,-93,-57
3925,807,773,889,746,138,4312,-16112,-756,-901,-83,-74
3928,807,770,896,745,142,4192,-16004,-584,-899,-97,-58
3931,810,772,896,743,139,4240,-16136,-680,-897,-93,-66
3934,804,763,890,745,139,4288,-16136,-484,-911,-73,-54
3937,805,773,886,748,137,4116,-16232,-480,-911,-77,-52
3940,806,763,887,750,134,4228,-16124,-688,-910,-63,-48
3943,799,767,896,748,137,4236,-16008,-460,-919,-73,-52
3946,805,764,892,743,137,4184,-16088,-536,-930,-94,-53
3949,807,766,893,750,143,4204,-16120,-536,-913,-66,-42
3952,823,768,899,745,138,4336,-16068,-584,-902,-78,-29
3955,801,767,898,747,139,4256,-16068,-528,-893,-79,-29
3958,809,765,891,742,142,4212,-16032,-428,-911,-33,-63
3961,805,768,891,747,138,4316,-15988,-484,-900,-48,-28
3964,811,768,892,750,138,4260,-16080,-620,-906,-44,-27
3967,810,769,897,746,139,4228,-15996,-524,-904,-46,-55
3970,807,762,889,747,139,4256,-16072,-464,-908,-32,-40
3973,803,767,890,746,138,4240,-16076,-568,-887,-32,-67
3976,805,765,895,746,134,4248,-16128,-560,-894,-36,-51
3979,807,767,894,748,138,4236,-16096,-364,-868,-13,-68
3982,807,767,893,749,139,4256,-16016,-528,-890,-15,-47
3985,806,768,895,746,135,4236,-16048,-540,-899,-37,-56
3988,816,766,896,746,137,4240,-16208,-412,-906,-23,-60
3991,803,771,898,752,142,4360,-16116,-572,-911,-32,-66
3994,807,767,892,746,138,4112,-16104,-696,-898,-54,-56
3997,812,770,897,745,139,4188,-16176,-532,-916,-35,-76
4000,803,767,892,745,134,4248,-16192,-664,-895,-49,-69
4003,805,771,891,743,132,4176,-16132,-624,-914,-47,-57
4006,803,768,889,740,139,4272,-16164,-632,-896,-64,-70
4009,801,767,894,744,140,4276,-16088,-512,-900,-43,-63
4012,805,767,891,742,138,4360,-16056,-528,-930,-18,-68
4015,804,770,895,745,139,4264,-16184,-564,-907,-33,-48
4018,806,768,884,749,133,4168,-16088,-436,-911,-29,-60
4021,809,770,895,744,141,4240,-16176,-512,-931,2,-54
4024,803,767,891,748,135,4204,-16100,-644,-923,18,-57
4027,805,767,896,743,134,4188,-16128,-540,-909,-9,-48
4030,797,767,893,741,141,4168,-16152,-412,-905,22,-53
4033,805,768,893,738,138,4252,-16032,-612,-915,11,-56
4036,806,786,891,746,142,4316,-16004,-300,-905,53,-51
4039,806,767,887,745,139,4252,-16016,-412,-926,21,-66
4042,804,771,887,747,139,4256,-16048,-464,-922,34,-57
4045,807,768,894,747,141,4244,-16080,-496,-912,21,-67
4048,803,768,895,745,133,4316,-16192,-524,-913,18,-47
4051,805,767,891,757,134,4264,-16112,-592,-952,31,-60
4054,806,767,894,751,139,4236,-16004,-648,-922,15,-57
4057,806,768,893,746,141,4276,-16104,-544,-934,20,-42
4060,805,770,896,742,139,4132,-16092,-600,-915,33,-37
4063,805,769,896,745,133,4280,-16208,-592,-943,11,-67
4066,806,771,891,743,141,4312,-16072,-456,-938,9,-55
4069,806,765,890,746,133,4224,-16068,-484,-932,-3,-69
4072,805,769,891,755,139,4208,-16160,-752,-960,-20,-56
4075,808,770,895,741,135,4248,-16168,-452,-956,0,-82
4078,810,771,891,747,137,4216,-16136,-660,-961,10,-69
4081,807,769,891,746,133,4228,-16068,-532,-961,-4,-56
4084,806,772,890,741,138,4288,-16164,-576,-966,12,-79
4087,805,765,891,747,139,4216,-16156,-524,-967,0,-57
4090,802,769,895,743,140,4148,-16144,-572,-968,25,-45
4093,803,770,899,743,137,4296,-16064,-588,-954,11,-68
4096,805,768,888,746,138,4252,-16072,-580,-970,4,-56
4099,803,768,889,742,137,4252,-16136,-568,-958,24,-47
4102,802,768,896,747,140,4248,-16112,-632,-939,36,-63
4105,806,768,891,741,135,4264,-16068,-540,-968,25,-44
4108,803,769,895,748,139,4264,-16204,-588,-937,26,-19
4111,807,763,890,748,140,4256,-16128,-592,-947,25,-58
4114,803,767,887,748,135,4368,-16124,-564,-950,26,-43
4117,803,766,895,743,139,4232,-16072,-364,-941,36,-46
4120,803,769,889,745,135,4284,-16092,-484,-962,7,-53
4123,802,766,893,742,138,4312,-16048,-608,-932,22,-36
4126,809,768,890,746,139,4224,-16108,-668,-959,10,-55
4129,810,768,894,744,135,4288,-16036,-676,-955,28,-46
4132,806,775,905,750,135,4272,-16184,-584,-941,5,-58
4135,799,768,895,746,134,4200,-16072,-560,-943,0,-64
4138,813,769,891,747,139,4348,-16112,-660,-943,9,-64
4141,803,769,895,751,135,4232,-16140,-604,-948,13,-48
4144,803,765,890,752,138,4272,-16172,-636,-925,-22,-63
4147,807,768,894,747,139,4328,-16024,-612,-937,-12,-72
4150,807,769,891,745,135,4284,-16004,-600,-949,-27,-51
4153,807,771,890,764,140,4160,-16076,-704,-946,-37,-62
4156,805,765,894,746,139,4300,-16136,-692,-956,-35,-51
4159,806,765,895,743,141,4260,-16104,-660,-950,-43,-64
4162,804,770,895,746,137,4332,-16188,-664,-944,-32,-63
4165,802,767,889,749,137,4280,-16128,-652,-948,-47,-85
4168,805,770,889,741,140,4216,-16072,-600,-932,-45,-63
4171,811,771,891,743,138,4196,-16132,-756,-952,-27,-72
4174,805,767,891,741,135,4252,-16076,-572,-946,-56,-66
4177,809,768,893,747,139,4164,-16084,-612,-926,-48,-61
4180,803,767,893,747,134,4152,-16128,-716,-951,-25,-52
4183,805,768,893,748,137,4288,-16084,-660,-941,-46,-59
4186,803,767,893,745,141,4308,-16104,-672,-934,-51,-58
4189,803,768,891,743,138,4160,-16136,-440,-928,-49,-40
4192,805,781,895,746,137,4204,-16064,-652,-916,-32,-25
4195,810,767,895,747,137,4300,-16064,-664,-948,-13,-50
4198,810,769,896,744,139,4248,-16156,-540,-928,-16,-27
4201,804,759,896,749,139,4168,-16036,-668,-934,-26,-29
4204,804,769,889,750,138,4284,-16060,-536,-949,-32,-38
4207,805,765,891,747,135,4248,-16052,-540,-956,-22,-25
4210,804,769,893,746,143,4252,-16088,-484,-927,-37,-13
4213,807,770,893,752,138,4212,-16072,-536,-967,-44,-29
4216,809,764,896,747,138,4188,-16080,-628,-947,-42,-5
4219,807,768,893,747,141,4336,-16188,-736,-952,-56,-42
4222,805,766,889,746,135,4224,-16152,-380,-952,-43,-33
4225,801,769,894,745,136,4232,-15964,-520,-957,-90,-33
4228,810,766,895,748,137,4260,-16068,-624,-957,-74,-35
4231,803,767,896,747,139,4288,-16112,-588,-947,-70,-48
4234,806,761,892,748,142,4188,-16208,-568,-935,-73,-38
4237,796,763,890,747,142,4264,-16088,-576,-939,-96,-52
4240,799,765,891,749,135,4220,-16116,-592,-924,-76,-33
4243,806,765,895,748,138,4264,-16060,-468,-941,-78,-48
4246,812,767,894,745,143,4280,-16020,-760,-931,-102,-49
4249,807,765,885,741,135,4180,-16124,-484,-908,-98,-50
4252,803,766,887,751,138,4324,-16184,-640,-905,-73,-30
4255,807,768,896,746,135,4136,-16068,-588,-939,-84,-62
4258,811,768,893,746,144,4224,-16100,-668,-895,-49,-69
4261,806,763,892,746,137,4132,-15932,-632,-925,-61,-61
4264,803,767,889,757,136,4200,-16084,-568,-924,-42,-40
4267,807,773,896,743,141,4292,-16096,-584,-908,-36,-38
4270,813,766,894,749,140,4324,-16028,-504,-939,-54,-51
4273,805,765,896,751,134,4220,-16092,-440,-920,-61,-44
4276,808,767,896,741,139,4260,-16124,-684,-943,-51,-43
4279,802,765,895,746,135,4256,-16024,-636,-960,-52,-37
4282,812,763,894,747,138,4192,-16100,-700,-940,-53,-28
4285,816,767,890,750,139,4184,-16056,-740,-954,-69,-50
4288,804,770,893,747,138,4156,-16128,-556,-956,-63,-27
4291,809,779,895,747,142,4228,-16148,-744,-978,-77,-57
4294,809,766,891,752,135,4296,-16164,-620,-957,-108,-45
4297,800,763,892,746,135,4276,-16076,-500,-975,-93,-38
4300,801,763,895,743,137,4196,-16128,-596,-969,-102,-48
4303,807,768,894,744,138,4288,-16096,-628,-960,-106,-45
4306,807,768,896,749,133,4112,-16148,-536,-956,-87,-62
4309,804,768,895,747,137,4244,-16092,-720,-977,-67,-50
4312,809,771,895,745,139,4284,-16072,-620,-934,-63,-73
4315,806,770,894,752,134,4372,-16164,-552,-952,-64,-41
4318,810,768,892,746,138,4256,-16200,-448,-929,-57,-62
4321,804,767,892,747,140,4220,-16116,-528,-917,-47,-76
4324,803,767,887,747,141,4312,-16188,-628,-927,-41,-73
4327,803,766,893,745,141,4192,-16120,-604,-917,-21,-77
4330,807,765,895,746,137,4332,-16088,-612,-922,-27,-36
4333,803,769,889,745,135,4220,-16184,-552,-910,-18,-63
4336,808,765,893,745,140,4188,-16204,-692,-923,-16,-52
4339,805,768,898,747,141,4204,-16128,-648,-897,-6,-56
4342,804,763,891,745,140,4148,-16052,-632,-891,8,-51
4345,804,766,891,749,135,4336,-16116,-664,-916,-21,-34
4348,810,766,895,745,134,4160,-16144,-552,-915,5,-49
4351,806,767,893,745,140,4288,-16080,-528,-891,-7,-58
4354,805,766,892,750,134,4228,-16176,-584,-899,5,-64
4357,806,767,889,752,138,4188,-16136,-672,-889,-11,-50
4360,806,768,892,746,137,4184,-16136,-492,-901,-3,-38
4363,811,768,895,742,134,4244,-16020,-592,-877,6,-34
4366,804,770,894,748,138,4372,-16028,-484,-870,27,-42
4369,798,768,898,749,137,4204,-15976,-604,-865,15,-52
4372,806,767,893,749,139,4360,-16144,-480,-899,14,-50
4375,805,767,897,750,137,4200,-16080,-508,-881,-7,-27
4378,811,767,896,746,137,4308,-16040,-584,-886,9,-29
4381,809,769,895,748,141,4212,-16100,-620,-849,8,-28
4384,809,770,891,752,140,4212,-16100,-484,-891,27,-27
4387,807,769,901,752,141,4324,-16000,-568,-872,4,-47
4390,807,767,895,752,140,4360,-16044,-656,-902,11,-36
4393,807,769,893,748,135,4188,-15972,-720,-908,10,-52
4396,813,769,895,743,137,4192,-16064,-616,-908,20,-66
4399,811,771,885,748,138,4168,-16084,-536,-917,1,-49
4402,805,768,894,746,139,4092,-16144,-636,-932,24,-44
4405,807,769,896,745,139,4224,-16080,-620,-916,-7,-60
4408,810,769,893,748,142,4144,-16092,-464,-951,41,-53
4411,810,765,896,748,142,4196,-16072,-628,-929,18,-40
4414,805,767,896,752,138,4080,-16096,-640,-936,7,-63
4417,809,765,892,747,142,4096,-16068,-576,-965,36,-51
4420,813,765,897,746,138,4148,-16068,-564,-948,12,-72
4423,809,765,895,751,138,4256,-16092,-692,-936,18,-59
4426,806,768,890,746,137,4156,-16132,-464,-945,18,-51
4429,805,774,892,747,137,4152,-16028,-556,-937,35,-52
4432,809,770,890,746,141,4060,-16088,-612,-927,10,-48
4435,809,769,889,751,141,4208,-16140,-496,-926,38,-46
4438,805,769,896,747,139,4228,-16144,-596,-915,27,-24
4441,807,767,891,749,138,4224,-16108,-492,-927,35,-27
4444,813,769,893,745,140,4304,-16136,-508,-908,13,-32
4447,801,771,893,745,142,4304,-16084,-652,-908,16,-24
4450,801,769,896,743,135,4208,-16068,-508,-892,32,-39
4453,803,773,893,748,144,4292,-16092,-488,-906,49,-24
4456,807,774,894,747,137,4180,-16052,-564,-913,37,-24
4459,805,769,897,746,137,4228,-16020,-648,-900,42,-43
4462,807,771,895,746,136,4276,-16080,-520,-906,67,-33
4465,803,771,895,745,135,4264,-16120,-636,-922,50,-41
4468,811,770,889,745,139,4300,-16068,-644,-909,40,-26
4471,804,769,891,745,143,4232,-16024,-588,-929,42,-57
4474,806,772,894,745,139,4356,-16176,-536,-924,23,-54
4477,807,770,893,748,136,4292,-16140,-636,-943,15,-39
4480,812,775,896,747,138,4292,-16056,-660,-949,4,-67
4483,806,774,893,743,144,4224,-16028,-488,-949,5,-43
4486,814,774,896,746,139,4164,-16084,-628,-922,-12,-53
4489,803,771,891,743,143,4392,-16048,-776,-961,-35,-56
4492,807,773,893,746,139,4308,-16100,-516,-970,-45,-69
4495,802,775,891,743,138,4244,-16144,-608,-958,-57,-63
4498,806,773,892,750,138,4264,-16132,-580,-962,-49,-53
4501,798,773,896,747,141,4296,-16076,-632,-947,-45,-58
4504,806,769,891,750,137,4224,-16012,-540,-961,-52,-57
4507,806,775,894,747,142,4232,-16132,-488,-960,-33,-33
4510,806,770,894,746,135,4248,-16120,-608,-968,-32,-44
4513,805,782,895,751,139,4316,-16028,-500,-957,-45,-53
4516,807,773,893,752,139,4288,-16072,-580,-956,-41,-29
4519,803,766,905,750,137,4236,-16100,-640,-935,-45,-27
4522,806,762,896,750,137,4276,-16052,-628,-963,-46,-32
4525,797,765,894,746,138,4184,-16196,-552,-947,-3,-40
4528,805,768,894,747,134,4352,-16104,-628,-960,-38,-7
4531,805,770,888,753,138,4348,-16084,-692,-924,-17,-45
4534,806,769,896,752,139,4264,-16120,-564,-926,-45,-51
4537,807,772,895,749,138,4344,-16052,-556,-933,-33,-18
4540,803,767,895,745,138,4184,-16100,-696,-938,-26,-24
4543,812,767,895,746,134,4248,-16080,-608,-906,-17,-31
4546,799,767,893,747,140,4232,-16048,-708,-914,-22,-36
4549,813,771,897,747,143,4208,-16108,-508,-910,-12,-31
4552,809,769,895,746,138,4252,-16112,-596,-913,-44,-30
4555,807,770,894,739,139,4228,-16068,-576,-907,-51,-38
4558,804,769,896,749,139,4300,-16136,-456,-927,-25,-25
4561,811,768,896,746,137,4180,-16120,-468,-907,-60,-39
4564,803,770,896,749,140,4172,-16112,-704,-913,-57,-56
4567,805,767,895,743,142,4264,-16140,-512,-912,-82,-57
4570,805,771,896,752,140,4388,-16124,-560,-972,-43,-61
4573,804,769,891,747,139,4332,-16076,-768,-917,-65,-24
4576,807,765,895,745,134,4296,-16120,-548,-947,-64,-64
4579,816,770,891,746,134,4264,-16188,-796,-931,-77,-58
4582,807,771,896,746,140,4192,-16200,-604,-939,-50,-59
4585,805,769,896,746,140,4208,-16116,-696,-960,-72,-45
4588,799,768,893,752,141,4308,-16056,-724,-957,-81,-76
4591,805,768,893,750,142,4308,-16052,-716,-962,-86,-58
4594,803,771,887,750,135,4284,-16160,-608,-956,-72,-58
4597,805,768,891,746,142,4324,-16164,-560,-957,-64,-67
4600,803,767,895,747,139,4220,-16180,-580,-933,-65,-52
4603,806,769,891,751,138,4316,-16068,-560,-945,-52,-55
4606,803,769,896,749,137,4292,-16044,-624,-929,-42,-44
4609,805,768,894,752,134,4176,-16016,-596,-925,-55,-47
4612,804,768,891,750,139,4360,-16112,-656,-936,-57,-39
4615,805,769,896,747,143,4268,-16096,-524,-893,-62,-69
4618,806,766,895,748,138,4268,-16096,-608,-935,-44,-37
4621,806,768,891,749,139,4244,-16032,-640,-899,-38,-49
4624,805,767,896,752,134,4284,-16136,-752,-906,-44,-55
4627,803,767,897,743,134,4272,-16076,-556,-895,-42,-22
4630,807,770,891,751,138,4256,-16068,-612,-900,-47,-55
4633,806,768,896,751,138,4248,-16136,-672,-907,-59,-60
4636,807,768,891,734,139,4192,-16112,-524,-909,-15,-39
4639,809,765,892,746,137,4160,-16120,-580,-912,-35,-37
4642,805,766,892,749,137,4160,-16144,-592,-916,-38,-34
4645,809,785,894,750,141,4236,-16140,-552,-922,-38,-34
4648,803,765,894,747,135,4108,-16188,-492,-872,-24,-32
4651,806,767,895,745,139,4232,-16212,-572,-889,-24,-53
4654,803,767,890,750,140,4164,-16076,-624,-873,-62,-38
4657,813,767,896,768,135,4152,-16156,-676,-894,-51,-14
4660,810,768,895,747,141,4260,-16004,-644,-886,-40,-36
4663,803,767,896,747,140,4196,-16172,-456,-881,-27,-32
4666,807,771,897,749,139,4148,-16132,-540,-867,-17,-36
4669,800,768,893,742,142,4176,-16140,-540,-869,-48,-32
4672,803,765,897,745,138,4260,-16112,-632,-877,-18,-49
4675,806,766,894,747,135,4240,-16164,-576,-886,-10,-25
4678,829,770,895,748,141,4124,-16104,-528,-864,-20,-35
4681,803,766,890,748,138,4152,-16144,-600,-850,-11,-34
4684,807,770,897,750,138,4248,-16108,-564,-870,-12,-30
4687,809,767,894,745,137,4220,-16000,-528,-863,5,2
4690,826,767,891,749,134,4212,-16088,-408,-877,14,-53
4693,802,769,907,743,138,4188,-16076,-640,-855,-16,-7
4696,807,770,892,743,139,4220,-16044,-524,-872,25,-34
4699,807,771,896,746,137,4212,-15996,-596,-864,-1,-33
4702,809,771,890,748,135,4264,-16080,-524,-871,-16,-38
4705,811,770,896,752,133,4220,-16116,-564,-882,6,-27
4708,804,770,895,742,142,4168,-16088,-552,-896,-11,-41
4711,808,770,896,746,138,4220,-16180,-668,-878,5,-32
4714,805,774,894,743,137,4272,-16196,-556,-888,6,-30
4717,807,768,893,747,134,4272,-16104,-708,-891,-15,-44
4720,809,768,895,743,135,4280,-16080,-660,-888,-21,-52
4723,803,784,891,745,134,4160,-16032,-412,-909,-15,-55
4726,807,771,890,747,140,4108,-16192,-636,-892,4,-38
4729,805,767,890,751,134,4200,-16096,-500,-899,18,-44
4732,806,763,895,734,136,4132,-16156,-428,-911,-7,-40
4735,807,767,897,750,139,4300,-16112,-604,-880,-1,-34
4738,806,769,901,748,139,4344,-16160,-480,-915,-15,-39
4741,810,768,892,747,137,4212,-16152,-536,-895,7,-59
4744,810,765,890,743,139,4180,-16124,-468,-900,4,-30
4747,805,766,893,746,138,4228,-16088,-464,-877,11,-31
4750,802,767,895,745,134,4140,-16132,-420,-875,5,-34
4753,805,769,894,747,135,4208,-16072,-504,-902,-3,-29
4756,805,769,891,745,135,4192,-16056,-540,-881,39,-59
4759,802,767,894,749,133,4228,-16092,-460,-889,12,-40
4762,806,768,893,747,137,4236,-16020,-532,-879,19,-35
4765,806,753,895,749,138,4384,-15988,-468,-859,47,-24
4768,807,768,895,745,135,4304,-16180,-524,-882,4,-54
4771,806,767,894,746,139,4236,-16196,-440,-869,19,-43
4774,809,768,891,747,137,4288,-16120,-628,-858,-1,-35
4777,802,768,893,746,138,4228,-16152,-608,-873,9,-35
4780,802,770,893,745,141,4308,-16060,-560,-883,6,-52
4783,807,769,906,738,137,4204,-16052,-636,-868,-3,-35
4786,810,771,893,733,133,4240,-16104,-760,-899,7,-47
4789,809,771,894,743,132,4228,-16128,-836,-902,-13,-35
4792,803,769,895,746,137,4256,-16144,-576,-878,-27,-52
4795,803,769,894,745,132,4236,-16140,-540,-870,-12,-40
4798,803,766,890,746,138,4152,-16092,-452,-881,-25,-40
4801,805,769,891,742,135,4256,-16128,-524,-897,-23,-46
4804,805,768,891,745,137,4172,-16076,-608,-879,-39,-21
4807,806,775,893,736,135,4172,-16116,-572,-901,-28,-39
4810,803,768,891,743,134,4344,-16072,-656,-871,-19,-42
4813,805,769,895,746,131,4232,-16052,-628,-901,-29,-63
4816,807,768,894,743,133,4252,-16100,-612,-891,-9,-43
4819,803,767,891,748,134,4308,-16112,-592,-888,-17,-42
4822,807,772,895,752,137,4340,-16156,-640,-903,-14,-32
4825,798,768,891,748,139,4268,-16092,-464,-901,-14,-30
4828,807,771,890,750,139,4300,-16032,-596,-884,-9,-30
4831,809,768,895,746,139,4312,-16164,-632,-882,-14,-24
4834,809,767,893,759,139,4268,-16044,-644,-900,-36,-41
4837,806,766,896,747,134,4312,-16020,-572,-869,-12,-44
4840,794,767,891,750,139,4360,-16180,-548,-873,-12,-24
4843,804,768,894,747,137,4272,-16056,-580,-859,-24,-40
4846,805,765,894,749,139,4164,-16016,-724,-887,-32,-45
4849,807,770,889,752,141,4320,-16008,-420,-878,-23,-31
4852,805,766,895,746,135,4108,-16152,-540,-863,-32,-47
4855,801,778,890,739,137,4232,-15960,-568,-884,-40,-40
4858,809,765,896,750,131,4316,-16100,-628,-876,-20,-55
4861,803,765,895,751,135,4336,-16032,-600,-860,-46,-36
4864,809,769,891,743,136,4172,-16144,-668,-892,-32,-44
4867,810,770,893,755,137,4232,-16136,-376,-869,-43,-41
4870,811,773,886,742,138,4164,-16116,-576,-875,-55,-62
4873,807,767,896,762,137,4184,-16044,-588,-904,-43,-57
4876,806,767,898,747,139,4188,-16048,-520,-889,-62,-39
4879,813,769,889,743,144,4216,-16184,-512,-898,-57,-54
4882,804,764,898,743,139,4208,-16080,-560,-912,-75,-48
4885,801,771,896,741,139,4212,-16076,-644,-918,-55,-39
4888,807,773,896,743,142,4216,-16136,-604,-928,-84,-65
4891,808,767,894,746,136,4280,-16008,-588,-911,-67,-43
4894,801,769,887,747,131,4056,-16144,-640,-913,-105,-43
4897,805,770,887,750,139,4128,-16100,-652,-935,-88,-52
4900,800,767,895,743,141,4312,-16116,-592,-911,-94,-41
4903,802,768,887,747,138,4292,-16092,-520,-949,-104,-42
4906,803,766,893,746,134,4256,-16192,-408,-928,-80,-34
4909,807,767,895,750,135,4268,-16044,-616,-932,-114,-35
4912,802,773,889,755,132,4244,-16132,-488,-948,-89,-35
4915,806,767,895,747,142,4172,-16124,-492,-926,-101,-43
4918,803,767,895,746,139,4208,-16164,-536,-921,-85,-48
4921,802,767,894,748,135,4264,-16176,-656,-911,-53,-50
4924,805,767,894,752,135,4288,-16064,-488,-907,-73,-47
4927,803,766,892,747,135,4244,-16060,-620,-906,-46,-40
4930,807,768,890,750,140,4200,-16100,-600,-909,-56,-46
4933,807,767,893,747,135,4304,-16112,-520,-888,-52,-37
4936,811,770,889,747,139,4276,-16048,-492,-890,-60,-56
4939,805,768,893,746,135,4264,-16016,-564,-889,-44,-40
4942,805,768,895,743,134,4072,-16052,-652,-890,-65,-27
4945,810,773,896,746,139,4208,-16124,-708,-907,-18,-53
4948,809,770,896,750,137,4196,-16096,-604,-909,-74,-38
4951,804,765,895,746,135,4180,-16068,-584,-888,-43,-44
4954,806,770,891,745,139,4072,-16088,-608,-928,-56,-37
4957,809,769,887,749,139,4184,-16096,-660,-915,-84,-15
4960,805,767,885,746,135,4172,-16148,-652,-930,-73,3
4963,807,766,896,739,140,4192,-16076,-652,-921,-45,-14
4966,800,765,895,749,139,4232,-16072,-688,-938,-55,-38
4969,807,765,894,750,144,4228,-16172,-564,-920,-52,-22
4972,798,767,896,749,139,4052,-16100,-604,-924,-79,-32
4975,804,765,894,743,134,4208,-16108,-580,-940,-77,-20
4978,802,771,891,745,138,4100,-16148,-488,-904,-105,15
4981,805,768,893,746,141,4056,-16204,-520,-850,-185,24
4984,802,767,889,746,142,4016,-16164,-620,-817,-551,93
4987,808,768,894,747,135,4064,-16136,-404,-854,-245,39
4990,813,769,891,742,135,4340,-16016,-588,-855,77,2
4993,807,769,894,743,138,4364,-16076,-552,-913,208,-39
4996,806,770,893,743,139,4272,-16116,-428,-960,201,-69
4999,809,773,890,743,141,4080,-16144,-648,-963,-82,-52
5002,810,768,889,738,141,4064,-16092,-576,-928,-193,-66
5005,802,769,896,747,135,4112,-16096,-592,-949,-74,-89
5008,807,768,889,743,137,4232,-16028,-504,-923,43,-64
5011,806,769,894,743,138,4120,-16040,-508,-943,-31,-34
5014,815,776,891,750,138,4212,-16044,-636,-944,-81,-40
5017,803,768,893,749,138,4152,-16124,-708,-959,-134,-49
5020,802,773,899,749,141,4264,-16076,-628,-968,-118,-69
5023,810,774,889,746,137,4156,-16100,-644,-980,-144,-50
5026,807,775,890,742,135,4236,-16180,-556,-992,-131,-55
5029,810,789,897,741,138,4356,-16112,-612,-970,-81,-43
5032,805,778,896,746,139,4216,-16184,-552,-987,-94,-59
5035,815,771,898,739,137,4332,-16152,-296,-993,-70,-74
5038,803,775,891,738,135,4296,-16164,-468,-1000,-64,-58
5041,805,781,898,736,140,4284,-16196,-568,-1016,-89,-44
5044,806,779,891,739,138,4340,-16080,-516,-987,-93,-52
5047,802,773,895,743,142,4400,-16100,-520,-1008,-100,-32
5050,802,770,895,738,142,4360,-16164,-600,-1009,-160,-9
5053,802,775,895,738,140,4364,-16176,-492,-1008,-136,-20
5056,799,779,894,738,139,4344,-16204,-540,-1004,-163,-31
5059,799,774,886,752,137,4396,-16096,-540,-1002,-191,-45
5062,806,771,893,739,141,4428,-16144,-560,-1008,-203,-27
5065,802,778,893,743,142,4388,-16108,-488,-985,-197,-34
5068,801,773,895,740,137,4476,-16216,-600,-995,-227,1
5071,794,774,887,745,141,4516,-16184,-604,-1000,-235,-23
5074,801,773,894,743,135,4472,-16220,-408,-1002,-220,-19
5077,800,769,887,749,142,4548,-16168,-596,-1015,-252,-32
5080,799,771,894,748,138,4436,-16196,-436,-995,-244,-61
5083,801,768,890,747,141,4476,-16112,-516,-1013,-250,-69
5086,801,772,891,743,144,4492,-16144,-528,-1022,-234,-64
5089,800,769,893,743,143,4488,-16228,-456,-1023,-279,-91
5092,806,775,891,746,140,4488,-16228,-488,-1006,-260,-76
5095,807,769,896,741,139,4512,-16128,-444,-1024,-282,-104
5098,802,783,896,741,137,4564,-16140,-560,-1028,-255,-128
5101,803,775,895,746,144,4512,-16152,-468,-1021,-300,-123
5104,806,773,892,741,143,4544,-16144,-584,-1019,-302,-130
5107,806,774,896,741,138,4456,-16132,-444,-1068,-327,-139
5110,801,771,896,737,142,4404,-16100,-356,-1066,-337,-167
5113,798,768,895,739,140,4420,-16192,-628,-1104,-390,-147
5116,803,781,898,741,138,4380,-16388,-524,-1107,-405,-176
5119,798,768,889,742,140,4480,-16248,-708,-1123,-397,-167
5122,807,767,894,738,137,4516,-16392,-624,-1134,-401,-185
5125,795,758,897,751,143,4368,-16380,-532,-1191,-480,-203
5128,799,767,898,742,144,4448,-16384,-532,-1221,-497,-203
5131,789,767,895,750,140,4492,-16408,-428,-1203,-491,-234
5134,798,762,893,752,139,4592,-16456,-440,-1241,-498,-243
5137,794,757,886,752,138,4664,-16436,-524,-1236,-511,-273
5140,784,759,897,751,139,4592,-16404,-648,-1228,-492,-311
5143,782,756,897,752,141,4728,-16596,-472,-1249,-515,-318
5146,787,743,894,752,140,4716,-16496,-544,-1250,-486,-363
5149,790,750,897,753,137,4716,-16688,-672,-1166,-544,-388
5152,785,745,894,754,135,4708,-16376,-596,-1126,-762,-395
5155,787,736,890,756,139,4808,-16548,-504,-1055,-771,-369
5158,785,734,894,759,141,5132,-16344,-396,-1058,-564,-399
5161,784,732,896,758,141,5092,-16308,-496,-1129,-651,-462
5164,784,731,896,752,138,5044,-16316,-532,-1174,-598,-518
5167,787,733,899,753,135,5108,-16172,-400,-1209,-542,-593
5170,789,737,887,752,137,5236,-16056,-288,-1145,-219,-581
5173,785,731,895,753,137,5508,-16072,-284,-1126,234,-612
5176,787,744,891,754,136,5476,-16132,-416,-1088,221,-571
5179,795,736,891,763,134,5364,-16176,-332,-1055,199,-524
5182,797,731,887,766,134,5240,-16208,-568,-1027,135,-489
5185,785,735,887,758,131,5256,-16220,-476,-1071,-19,-489
5188,794,745,890,763,134,5084,-16252,-648,-1106,-109,-558
5191,798,743,896,754,133,5348,-16276,-480,-1023,-330,-389
5194,795,746,897,757,134,5044,-16220,-796,-1081,-748,-383
5197,794,741,892,758,131,4972,-16228,-544,-1084,-617,-421
5200,793,749,893,762,133,5160,-16164,-600,-995,-437,-351
5203,803,746,897,760,134,5060,-16228,-636,-1025,-473,-311
5206,796,743,898,758,132,4924,-16192,-644,-1122,-622,-332
5209,800,742,897,759,133,4676,-16156,-732,-1104,-913,-316
5212,794,739,894,762,129,4804,-16256,-560,-1137,-976,-337
5215,800,741,890,758,130,4776,-16124,-560,-1094,-727,-310
5218,799,742,893,758,130,4744,-16240,-448,-1087,-374,-342
5221,800,742,891,753,132,4792,-16256,-592,-987,-103,-317
5224,804,743,886,752,132,4648,-16300,-656,-886,99,-255
5227,804,752,889,754,135,4624,-16352,-592,-869,162,-213
5230,804,752,892,748,130,4412,-16376,-580,-812,179,-232
5233,798,758,887,752,130,4368,-16392,-508,-852,348,-328
5236,804,758,893,749,133,4304,-16416,-756,-774,242,-308
5239,805,782,892,750,130,4404,-16460,-844,-785,302,-371
5242,802,762,891,752,128,4324,-16544,-628,-813,334,-406
5245,801,762,887,749,131,4036,-16672,-764,-750,216,-438
5248,804,758,886,737,132,4012,-16496,-760,-820,26,-527
5251,800,757,883,747,131,3964,-16404,-552,-806,-14,-476
5254,799,763,883,749,128,4064,-16668,-832,-783,-312,-393
5257,795,753,886,743,127,3852,-16500,-668,-763,-473,-335
5260,796,753,883,749,128,3844,-16328,-568,-788,-251,-385
5263,784,752,887,749,136,3776,-16080,-660,-763,-323,-358
5266,794,747,889,751,131,3696,-16008,-668,-861,-176,-492
5269,794,752,880,751,137,3560,-16228,-552,-922,275,-631
5272,798,750,894,747,128,3568,-16232,-432,-1052,442,-760
5275,789,737,886,748,130,3284,-16128,-688,-1010,331,-698
5278,791,746,885,749,130,3568,-16272,-376,-1018,759,-711
5281,787,749,887,746,130,3424,-16204,-712,-1068,699,-797
5284,793,749,886,750,134,3388,-16076,-688,-1138,444,-805
5287,784,746,884,750,128,3216,-16388,-612,-1114,355,-788
5290,784,744,887,754,130,3400,-16016,-628,-1047,423,-835
5293,787,746,885,746,131,3292,-15732,-700,-1025,615,-893
5296,786,749,890,745,132,3172,-15672,-712,-1091,549,-990
5299,787,746,887,742,130,3088,-15512,-584,-1168,288,-1100
5302,797,748,889,741,133,3180,-15380,-600,-1252,187,-1173
5305,794,740,894,725,131,3420,-15528,-552,-1205,247,-1157
5308,795,746,890,736,130,3364,-15572,-584,-1169,320,-1155
5311,802,744,888,737,131,3588,-15532,-400,-1137,645,-1180
5314,795,742,895,735,131,3560,-15488,-420,-1072,745,-1140
5317,798,745,893,733,128,3488,-15536,-364,-1142,886,-1256
5320,804,744,890,734,128,3340,-15640,-432,-1176,983,-1375
5323,803,752,897,731,135,3424,-15936,-564,-1150,856,-1351
5326,804,752,897,721,128,3288,-16000,-560,-1195,736,-1409
5329,811,752,905,725,128,3064,-16300,-604,-1197,531,-1453
5332,816,751,905,731,129,3136,-15656,-956,-1294,415,-1569
5335,829,758,899,725,133,2736,-15612,-740,-1733,-76,-1907
5338,826,761,903,730,130,3088,-16032,-804,-1768,637,-1855
5341,835,761,902,735,129,3324,-15984,-624,-1787,1757,-1864
5344,839,763,902,741,134,3036,-15832,-744,-2006,2185,-1896
5347,845,768,899,748,133,2836,-16636,-1080,-2006,1582,-1578
5350,832,764,898,735,134,2772,-15828,-956,-2091,1343,-1504
5353,830,759,895,740,131,2544,-16144,-940,-2216,1704,-1599
5356,823,763,897,752,130,2512,-15900,-488,-2423,2007,-1722
5359,825,766,891,742,135,2292,-16328,-668,-2542,1601,-1861
5362,829,769,894,754,132,2472,-16616,-688,-2516,1464,-1738
5365,842,782,896,763,134,2380,-16432,-416,-2545,797,-1858
5368,829,786,889,763,140,2632,-16320,-328,-2688,347,-1865
5371,848,802,889,755,144,2672,-16412,-192,-2851,9,-2016
5374,852,811,891,752,145,3132,-16716,-740,-2849,-580,-1964
5377,852,816,896,749,144,3676,-16040,-648,-2881,-412,-2104
5380,848,812,900,747,144,3168,-15700,-536,-2995,-109,-2398
5383,887,806,901,751,147,3328,-16296,-768,-2871,-85,-2489
5386,867,799,912,752,144,3548,-15424,-868,-2917,270,-2588
5389,841,789,912,756,144,3452,-15424,-568,-2863,699,-2719
5392,833,795,912,761,144,3064,-15824,-1012,-3044,-214,-2924
5395,832,785,909,750,144,2648,-15852,-1740,-3207,-1033,-2880
5398,832,799,912,744,144,3488,-15844,-612,-3126,-849,-2823
5401,826,791,905,748,142,3652,-15232,-1312,-3338,-413,-2994
5404,822,807,901,749,143,3392,-15580,-832,-3168,599,-3046
5407,823,817,889,753,150,3532,-15308,-1196,-3335,1591,-3148
5410,832,837,891,755,155,3620,-15820,-484,-3250,2134,-3157
5413,832,847,892,759,157,3392,-15892,-1424,-3196,1894,-3043
5416,837,867,885,752,161,3024,-16488,-1004,-2970,1199,-2671
5419,837,871,898,755,163,3268,-15376,-1632,-3330,421,-2898
5422,846,871,903,752,166,3600,-15804,-1064,-3137,1542,-3033
5425,846,867,901,752,162,3496,-15760,-972,-3392,1956,-3215
5428,848,863,919,753,163,3228,-16168,-1452,-3598,731,-3011
5431,845,851,921,757,162,3504,-16120,-1316,-3474,276,-3051
5434,841,851,948,752,170,3716,-15580,-1636,-3494,636,-3112
5437,838,846,923,754,169,3608,-15552,-1528,-3638,1328,-3253
5700,821,953,914,756,835,7228,-15532,-2364,-2665,-2478,-7858
5703,778,958,926,754,797,6440,-15384,-3328,-2835,-2959,-8107
5706,720,917,913,733,766,7240,-15108,-1976,-2413,-2610,-8057
5709,679,889,922,726,737,7104,-14760,-3116,-2403,-2810,-8128
5712,657,862,940,715,718,7352,-14308,-2744,-2244,-2828,-8179
5715,659,849,944,711,718,6888,-14856,-3372,-2000,-2809,-8135
5718,681,822,942,707,695,7040,-14812,-3140,-1551,-3055,-7828
5721,694,809,938,714,719,7236,-14008,-3180,-1419,-2624,-7895
5724,699,807,928,709,717,6712,-13916,-3396,-1659,-3256,-7730
5727,707,815,935,718,715,7532,-14024,-3932,-2071,-3322,-7747
5730,720,831,933,720,737,7832,-13800,-3572,-2148,-3004,-7735
5733,755,854,929,720,729,7508,-14092,-3572,-2194,-2872,-7568
5736,787,882,946,723,750,8056,-15004,-3080,-1648,-2751,-7020
5739,835,912,955,723,759,8220,-13972,-2792,-1691,-2287,-7101
5742,880,941,951,725,777,7668,-14480,-3680,-1686,-2668,-6811
5745,917,949,957,733,858,7616,-14056,-2876,-1740,-2537,-6730
5748,956,944,951,745,871,8084,-14304,-3008,-1488,-2340,-6652
5751,984,921,933,734,869,7624,-13744,-3496,-1982,-2435,-6710
5754,976,901,913,742,848,7552,-14500,-3324,-2221,-2230,-6780
5757,955,885,895,736,969,8164,-15016,-3176,-2057,-1812,-6444
5760,933,864,880,739,1012,8604,-14856,-3052,-1939,-1137,-6292
5763,903,848,873,750,993,8152,-14964,-2980,-1845,-519,-6073
5766,884,842,877,745,1001,7436,-15128,-2436,-1638,-534,-5718
5769,864,838,874,769,983,7004,-15740,-2668,-1506,-1437,-5445
5772,848,827,878,783,951,7160,-16812,-2540,-1888,-2040,-5463
5775,834,814,874,791,933,9332,-17336,-956,-1646,-1291,-5270
5778,834,795,880,795,912,8864,-17088,-3040,-1283,-213,-4881
5781,832,774,879,804,877,8568,-15508,-2920,-1260,1159,-4676
5784,821,745,883,789,889,7512,-14588,-3668,-1318,1012,-4631
5787,816,713,895,781,870,7328,-14224,-3156,-1449,1114,-4600
5790,806,682,912,770,869,7916,-13976,-2924,-1010,1064,-4414
5793,791,653,921,775,851,8080,-13264,-2544,-801,1062,-4234
5796,763,640,931,770,832,8264,-13076,-2456,-478,1156,-4096
5799,729,639,935,767,816,8476,-12520,-2204,-378,850,-3910
5802,693,661,945,767,831,8644,-12460,-2240,-46,1132,-3969
5805,659,702,945,755,880,9408,-12300,-1644,77,1326,-3721
5808,656,745,944,762,850,9424,-12208,-1932,640,1535,-3677
5811,652,784,944,767,843,9384,-12028,-1976,850,1289,-3607
5814,669,811,939,752,819,10064,-12204,-2132,763,887,-3521
5817,698,818,926,742,872,10804,-12080,-2156,657,1018,-3511
5820,711,830,900,740,866,11400,-11976,-2188,501,1206,-3497
5823,751,851,887,737,829,11176,-12252,-2152,202,825,-3646
5826,775,883,880,735,823,11040,-12180,-2324,-8,583,-3743
5829,755,913,868,737,814,11292,-12176,-2492,20,708,-3807
5832,732,942,858,751,794,11156,-12044,-2784,-166,522,-3987
5835,715,943,859,769,807,11152,-12052,-2600,-296,-13,-4137
5838,720,928,887,762,784,11268,-12156,-2956,-507,-435,-4336
5841,709,894,876,764,791,11504,-12212,-3188,-753,-755,-4473
5844,688,848,890,758,786,11952,-12112,-3016,-1121,-756,-4627
5847,646,811,912,762,765,12360,-12144,-2884,-1598,-669,-4855
5850,610,780,935,775,786,11552,-12396,-2576,-1768,-925,-4932
5853,621,752,961,775,777,10964,-12320,-2204,-2042,-964,-5087
5856,639,737,944,775,789,11184,-12564,-2188,-2123,-1032,-5093
5859,652,725,935,784,767,11256,-12792,-2208,-2229,-1325,-5124
5862,652,709,925,783,764,11116,-12916,-1988,-2243,-1464,-5164
5865,655,695,918,776,765,11692,-12832,-1740,-2406,-950,-5197
5868,666,679,928,764,784,10872,-13272,-1524,-2258,-912,-5088
5871,666,669,919,757,804,11380,-13136,-1848,-2131,-695,-4936
5874,673,655,912,753,787,11132,-13612,-1952,-2074,-655,-4975
5877,672,659,914,746,770,10688,-13760,-1724,-2148,-771,-4915
5880,670,683,912,733,759,11036,-13984,-1732,-2102,-465,-4980
5883,631,709,912,719,778,12028,-14148,-1868,-2176,124,-4878
5886,605,742,911,715,762,11236,-14800,-1768,-1763,48,-4590
5889,561,771,912,719,765,11168,-14880,-1780,-1535,399,-4625
5892,524,813,913,717,807,11140,-14988,-1912,-1129,892,-4556
5895,497,848,917,710,818,10952,-15012,-1952,-654,932,-4410
5898,490,879,917,717,818,10932,-14868,-1860,-323,796,-4309
5901,486,895,919,725,839,11260,-14988,-1768,22,803,-4330
5904,490,887,912,722,819,11692,-14772,-1840,208,1016,-4372
5907,486,855,911,723,810,12044,-14524,-1768,315,1170,-4381
5910,494,798,894,722,816,11904,-14484,-1684,478,1378,-4418
5913,502,771,897,731,853,11976,-14408,-1632,642,1490,-4474
5916,511,741,907,742,880,12152,-14400,-1584,671,1568,-4557
5919,511,709,917,745,901,12192,-14320,-1932,629,1645,-4586
5922,511,727,927,751,910,12244,-14236,-2156,584,1568,-4650
5925,535,750,929,747,891,12200,-14004,-2200,503,1383,-4724
5928,560,747,917,734,873,12160,-13728,-2452,318,1195,-4777
5931,576,732,912,757,930,12324,-13468,-2724,99,1140,-4869
5934,592,720,905,727,916,12580,-13316,-2760,1,1198,-4914
5937,624,710,891,725,917,12516,-13264,-3008,-67,1232,-5031
5940,640,715,885,737,910,12484,-13320,-3184,-72,1264,-5108
5943,656,720,878,742,880,12176,-13176,-3116,-175,1090,-5253
5946,688,726,869,751,865,12172,-13104,-3164,-187,937,-5343
5949,712,739,862,752,887,12308,-12976,-2932,-259,1093,-5385
5952,705,757,849,752,889,12188,-12716,-2764,-331,1329,-5455
5955,691,770,855,758,870,12272,-12624,-2796,-328,1562,-5474
5958,682,785,854,763,847,11940,-12564,-2648,-284,1598,-5432
5961,656,784,858,755,832,11808,-12544,-2752,-309,1567,-5530
5964,624,775,862,752,813,11656,-12584,-2612,-432,1325,-5562
5967,608,766,861,746,816,11644,-12552,-2408,-487,1345,-5578
5970,582,768,865,745,865,11688,-12700,-2372,-558,1416,-5488
5973,561,770,880,750,848,11552,-12900,-2120,-602,1650,-5456
5976,533,755,893,749,832,11508,-13100,-2444,-679,1576,-5351
5979,528,721,910,742,803,11340,-13188,-2452,-806,1374,-5330
5982,511,693,924,737,784,11372,-13368,-2064,-941,1567,-5263
5985,502,657,945,730,775,11360,-13328,-2048,-831,1360,-5258
5988,496,627,960,721,759,11376,-13364,-2128,-819,1393,-5182
5991,489,619,971,726,731,11356,-13208,-2204,-713,1460,-5088
5994,487,624,986,730,729,11312,-13148,-2496,-710,1518,-5036
5997,487,626,1005,738,749,11380,-12960,-2740,-642,1575,-4988
6000,491,639,1015,741,747,11560,-12924,-2948,-710,1660,-4983
6003,496,653,1037,743,806,11632,-12840,-2884,-806,1887,-4978
6006,506,656,1031,737,816,11648,-12820,-2784,-976,1757,-4938
6009,526,652,1008,730,862,11552,-12812,-2684,-1172,1551,-4976
6012,537,644,978,721,884,11536,-12716,-2872,-1309,1574,-4941
6015,530,634,955,706,899,12148,-12972,-3128,-1331,1822,-4991
6018,542,635,943,714,944,12040,-12944,-2920,-1466,1971,-4988
6021,533,659,938,720,932,12232,-13012,-2948,-1573,1895,-5064
6024,542,705,943,721,911,11880,-13160,-2868,-1652,1882,-5175
6027,530,751,944,723,941,12004,-13232,-2848,-1674,1929,-5300
6030,511,800,943,733,936,11824,-13092,-2712,-1645,1807,-5353
6033,497,829,932,739,913,11800,-12988,-2844,-1712,1766,-5507
6036,493,847,933,743,886,11872,-13000,-2860,-1700,1640,-5595
6039,485,853,929,734,859,12016,-12860,-3040,-1685,1580,-5716
6042,479,847,942,727,844,11920,-13024,-2880,-1709,1728,-5794
6045,483,816,937,725,823,11924,-12988,-2888,-1645,1779,-5880
6048,493,773,946,733,811,11556,-12940,-2760,-1722,1587,-5985
6051,502,751,944,724,818,11592,-13212,-2684,-1702,1458,-6009
6054,511,739,944,730,879,11724,-13160,-2588,-1720,1257,-6052
6057,511,752,959,724,879,11584,-13228,-2748,-1673,1045,-6057
6060,538,734,981,721,903,11596,-13172,-2852,-1604,1039,-6116
6063,547,731,1005,721,893,11804,-13392,-3164,-1475,1071,-6058
6066,555,724,1001,717,867,11848,-13444,-3240,-1533,989,-6050
6069,558,740,989,729,870,12144,-13260,-3116,-1634,1244,-6058
6072,567,752,957,737,845,12008,-13444,-3244,-1671,1369,-6128
6075,579,759,926,731,816,11860,-13176,-3168,-1672,1359,-6124
6078,574,771,902,737,806,11956,-13476,-2924,-1620,1304,-6117
6081,576,785,893,713,781,11708,-13276,-2852,-1546,1333,-6075
6084,560,789,887,720,755,11844,-13344,-2676,-1380,1486,-5954
6087,550,781,889,722,789,11868,-13360,-2768,-1243,1541,-5887
6090,547,762,894,720,795,11944,-13308,-2876,-1086,1721,-5886
6093,560,752,904,730,780,12256,-13044,-2872,-971,1847,-5805
6096,552,721,899,735,765,12352,-12940,-2936,-876,2059,-5788
6099,534,705,899,735,759,12412,-12852,-2924,-849,2007,-5745
6102,523,702,897,731,752,12448,-12816,-2948,-830,2060,-5756
6105,511,686,882,726,723,12528,-12600,-2976,-814,2200,-5769
6108,508,704,885,722,722,12936,-12380,-2980,-813,2340,-5739
6111,503,719,875,716,751,12284,-12484,-2928,-594,2557,-5676
6114,501,738,868,713,755,12648,-12432,-2516,-502,3061,-5765
6117,496,722,875,705,778,12768,-12444,-2896,-333,2952,-5716
6120,486,705,880,703,768,12852,-12172,-2448,-404,3240,-5863
6123,485,695,895,720,798,13660,-12040,-3004,-536,2809,-5898
6126,491,687,926,715,770,13324,-12144,-3332,-772,2571,-6055
6129,495,683,971,704,750,13432,-12048,-3112,-823,2508,-6221
6132,491,682,994,703,783,13120,-11948,-2916,-916,2360,-6362
6135,490,676,1005,693,785,13240,-11800,-3192,-970,2100,-6544
6138,494,685,1008,686,775,13288,-11780,-3232,-894,1754,-6655
6141,496,673,999,686,759,13312,-11608,-3208,-790,1850,-6667
6144,504,665,987,688,784,12920,-11692,-2792,-742,1792,-6798
6147,511,659,967,710,770,13508,-11696,-2752,-484,2729,-6794
6150,543,656,953,705,788,13408,-11604,-2740,-432,2754,-6790
6153,537,656,941,710,815,13140,-11408,-2832,-580,2478,-6820
6156,545,657,926,715,805,13232,-11588,-2688,-673,2042,-6832
6159,547,667,921,707,784,13092,-11352,-2352,-804,2076,-6873
6162,560,672,916,711,793,13676,-11488,-2560,-792,2351,-6868
6165,565,661,906,711,823,13464,-11592,-2588,-691,2426,-6813
6168,559,655,900,715,816,13720,-11492,-2652,-720,2606,-6807
6171,560,643,889,719,797,13692,-11156,-2720,-829,2731,-6811
6174,571,647,871,721,803,13816,-11400,-2552,-738,2683,-6714
6177,581,658,861,726,800,13772,-11336,-2172,-795,2473,-6649
6180,597,679,857,719,779,14844,-11180,-2240,-642,3965,-6526
6183,611,722,855,718,807,14032,-11264,-2664,-990,2657,-6642
6186,607,730,848,717,880,13628,-11420,-3052,-1142,1380,-6593
6189,592,752,839,720,862,13688,-11328,-2224,-1046,1060,-6574
6192,574,784,837,717,880,13992,-11612,-2288,-822,1217,-6502
6195,560,805,835,720,895,14504,-11316,-1868,-789,1598,-6544
6198,557,815,839,730,912,14768,-11196,-2240,-863,1345,-6520
6201,547,811,842,720,896,14532,-11188,-2028,-825,1493,-6549
6204,549,804,848,720,882,14568,-11040,-2200,-822,1524,-6569
6207,554,799,859,733,858,14696,-10732,-2608,-761,1438,-6569
6210,542,795,858,726,844,14648,-10308,-1852,-882,1788,-6697
6213,531,784,876,730,830,14580,-10580,-1656,-738,1990,-6645
6216,528,767,871,726,814,14292,-10636,-2068,-582,1719,-6563
6219,507,739,869,710,848,13976,-9968,-1532,-819,2078,-6715
6222,528,713,852,714,854,13632,-11280,-1696,-606,2452,-6487
6225,530,677,855,716,849,13244,-10704,-676,-726,-774,-6499
6228,545,656,865,721,850,14832,-10044,-712,-1023,2909,-6541
6231,551,656,874,734,838,15328,-10664,-1204,-226,3831,-6158
6234,551,656,871,743,836,15112,-10052,-2012,-851,4204,-6334
6237,535,656,867,737,819,14288,-10692,-1568,-341,4190,-6049
6240,530,656,864,739,803,14220,-10368,-2352,-601,3934,-6125
6243,537,675,858,727,810,14244,-10640,-1480,-461,3873,-6035
6246,544,679,855,733,813,14320,-10328,-1536,-590,3572,-5981
6249,565,704,856,733,816,14404,-10212,-1536,-578,3501,-5970
6252,590,718,848,734,805,14712,-10244,-1732,-607,3739,-5980
6255,592,720,847,740,802,14544,-10184,-1544,-470,3594,-6038
6258,597,710,848,745,807,14676,-10004,-1636,-354,3762,-6025
6261,598,693,840,749,839,14708,-10056,-1496,-261,3917,-6070
6264,615,683,830,741,832,14712,-9916,-1348,-167,4096,-6125
6267,637,679,829,746,819,14580,-9976,-1268,-52,4187,-6082
6270,650,662,823,737,805,14832,-9600,-1852,-170,4045,-6112
6273,659,654,826,752,784,14624,-9596,-2072,-118,3646,-6095
6276,659,643,817,749,771,14568,-9684,-1848,-67,3688,-6108
6279,651,627,816,747,752,14860,-9588,-1328,100,3872,-6042
6282,637,624,818,756,734,14364,-9304,-1740,-226,3264,-6146
6285,630,613,813,751,730,14560,-9424,-1448,-160,3390,-6152
6288,641,592,805,747,719,14884,-9160,-1132,-315,3284,-6184
6291,613,562,801,751,731,14840,-9336,-1992,-358,3435,-6287
6294,609,539,802,763,734,14696,-9536,-1844,-188,3098,-6319
6297,599,538,795,750,733,14740,-9420,-2008,-247,3108,-6366
6300,609,528,791,763,713,14864,-9220,-1740,-374,2799,-6490
6303,605,529,791,762,695,14504,-8696,-1260,-477,2786,-6648
6306,602,534,797,783,689,14292,-8808,-1044,-642,3565,-6864
6309,605,552,799,763,705,14328,-9668,-1656,-671,3722,-6916
6312,604,570,797,771,717,14828,-10416,-2428,-267,3467,-6672
6315,606,578,789,758,729,14880,-8900,-1216,-570,3104,-6770
6318,605,581,801,761,789,14568,-10008,-1900,-838,3314,-6887
6321,604,576,791,749,799,14692,-9960,-1748,-785,2592,-6847
6324,595,578,803,754,791,14592,-8780,-1288,-1241,2957,-7080
6327,590,581,805,746,793,14608,-10136,-1736,-1133,3784,-7026
6330,618,592,813,741,778,14676,-10304,-1708,-739,3174,-6744
6333,634,597,815,745,758,14024,-9120,-1524,-966,3136,-6850
6336,618,598,813,750,737,13656,-10084,-2848,-852,3035,-6795
6339,592,587,807,762,730,14752,-9412,-504,-802,3888,-6650
6342,592,574,811,765,716,13992,-9648,-2156,-973,3542,-6730
6345,613,560,795,766,720,14164,-9436,-1932,-902,2884,-6567
6348,631,545,814,770,706,14140,-9072,-1840,-926,1830,-6449
6351,636,537,800,782,719,14368,-8856,-1656,-951,2572,-6553
6354,640,534,800,796,711,14632,-8576,-1156,-703,3665,-6530
6357,656,531,807,798,702,13860,-7936,-1372,-939,4095,-6778
6360,666,528,809,785,706,14108,-9284,-1636,-541,4384,-6706
6363,669,533,816,797,738,14068,-8364,-1956,-480,3902,-6718
6366,669,544,816,794,724,14336,-7936,-1256,-448,4711,-6704
6369,669,561,816,784,746,13880,-8000,-1616,-634,4037,-6704
6372,677,586,810,817,735,13864,-8992,-1892,-782,3809,-6745
6375,684,604,811,809,727,14184,-8432,-1128,-989,4117,-6732
6378,685,615,809,796,719,14584,-9548,-1516,-835,3766,-6590
6381,688,627,805,772,726,15080,-8648,-1276,-768,3122,-6441
6384,691,646,801,821,708,14668,-8064,-1904,-1017,3193,-6528
6387,685,656,797,805,702,14764,-9404,-1896,-650,3078,-6480
6390,685,680,804,814,698,14960,-8476,-1816,-602,2369,-6426
6393,680,666,807,815,689,15140,-7396,-1484,-835,2944,-6681
6396,666,662,813,816,688,15128,-9260,-2168,-500,3213,-6610
6399,670,663,813,826,675,14980,-8192,-664,-331,2551,-6506
6402,663,659,806,816,671,14824,-7632,-936,-586,3223,-6673
6405,659,653,807,797,687,15092,-8492,-1132,-499,3443,-6865
6408,662,657,808,808,693,14900,-8976,-1640,-431,3323,-6777
6411,665,661,810,789,686,14804,-7832,-940,-469,3273,-6976
6414,671,656,810,789,673,14844,-8456,-1652,-263,3572,-6985
6417,669,663,814,795,675,15016,-8456,-1336,-29,3305,-6934
6420,677,654,810,789,674,14312,-7824,-1028,-164,2867,-6985
6423,670,647,816,797,678,14656,-8304,-1600,-106,2992,-7041
6426,688,651,799,810,681,14480,-8552,-788,-214,3046,-7120
6429,702,657,805,810,705,14656,-8352,-808,72,3080,-6968
6432,703,654,807,811,709,13980,-7252,-672,-43,3219,-7006
6435,702,674,812,789,708,14568,-9188,-1460,290,3547,-6902
6438,704,667,816,805,737,14248,-8432,-1168,262,2679,-6710
6441,705,663,805,816,738,14164,-8004,-1332,190,2154,-6777
6444,709,659,812,823,741,14308,-7340,-572,19,2872,-6874
6447,710,670,810,818,741,13896,-8284,-1052,250,2230,-6892
6450,717,675,807,832,743,14488,-8316,-664,-55,2896,-7030
6453,714,688,817,816,744,14580,-8808,-860,478,3189,-6890
6456,715,693,822,794,739,14496,-7704,-224,625,3173,-6780
6459,713,702,827,806,723,14556,-7920,-828,549,3170,-6682
6462,729,708,827,805,719,14276,-8120,-812,758,2984,-6670
6465,715,714,831,810,709,14560,-8264,-1000,403,3653,-7042
6468,721,711,833,802,704,14508,-7988,-84,597,3923,-7066
6471,725,716,845,798,695,14220,-8364,-868,442,3227,-7104
6474,731,709,845,802,686,14200,-7984,-660,622,2390,-6947
6477,727,703,843,810,688,14232,-7716,-752,428,2756,-7086
6480,733,695,838,816,683,14144,-7828,-512,535,2901,-7132
6483,739,689,839,833,679,14236,-8024,-900,517,2586,-7053
6486,745,687,825,834,675,14428,-7720,-312,609,2883,-6962
6489,742,690,816,851,673,14408,-7320,-324,547,2624,-6934
6492,739,683,814,859,661,14088,-7636,-544,449,2110,-6969
6495,737,670,816,859,663,14160,-7116,-236,570,1999,-6924
6498,727,661,814,855,661,14432,-7376,4,589,2438,-6907
6501,732,656,818,850,664,14524,-7544,-188,650,2399,-6892
6504,729,650,819,855,671,14364,-7044,-192,518,2085,-6890
6507,733,654,817,870,667,14536,-6876,52,408,2004,-6824
6510,718,657,820,859,663,14408,-6516,160,233,1897,-6910
6513,706,669,815,875,668,14312,-7084,220,146,1726,-6921
6516,699,665,814,860,663,14580,-6828,56,-162,1607,-7238
6519,693,670,810,863,661,14668,-7604,300,172,3078,-7266
6522,689,663,807,874,656,14416,-7080,120,385,2077,-7007
6525,697,654,815,873,656,13700,-6264,444,247,1445,-6973
6528,702,686,816,877,656,13692,-6812,344,135,971,-7160
6531,690,679,814,870,656,15152,-6736,2136,179,1456,-7031
6534,685,684,822,872,656,13480,-6652,-896,-604,-804,-7618
6537,673,671,819,880,645,14956,-6560,1552,-173,244,-7347
6540,666,677,819,870,643,15460,-5644,1420,-282,1263,-7307
6543,664,691,826,850,645,15876,-6016,484,-238,1617,-7108
6546,666,708,826,848,639,15620,-5752,680,-114,1486,-6958
6549,670,731,828,848,645,15696,-6156,1152,106,3048,-6881
6552,684,738,827,851,647,15976,-5812,1660,-8,4146,-6658
6555,682,746,830,866,640,15176,-6340,220,-58,2968,-6380
6558,683,741,835,885,642,14956,-6444,804,13,2900,-6212
6561,674,746,834,879,648,15104,-6288,516,-51,2617,-6318
6564,671,735,842,867,647,15124,-6252,340,-77,2975,-6558
6567,662,727,844,863,650,15024,-6836,884,532,3877,-6286
6570,655,707,847,859,652,14648,-6164,124,374,3223,-6329
6573,647,686,850,852,655,14456,-6132,408,596,3103,-6167
6576,643,687,846,866,655,14640,-6316,796,696,3584,-6138
6579,634,675,858,862,656,14728,-6032,332,583,3471,-6057
6582,626,674,869,863,656,14848,-6112,580,421,3637,-6120
6585,631,669,866,863,655,14560,-6260,568,414,3270,-6005
6588,630,665,874,848,658,14572,-5848,244,451,2821,-5978
6591,655,656,867,839,657,14656,-5592,580,177,2282,-6003
6594,631,647,873,834,659,14456,-6236,-44,400,2973,-6020
6597,633,640,877,851,659,14040,-5952,-308,712,2137,-5890
6600,640,647,870,848,682,14040,-5648,576,939,1242,-5714
6603,644,655,867,867,681,14212,-5400,488,371,1368,-5847
6606,651,656,871,873,687,14168,-5904,588,452,1534,-6020
6609,662,665,878,880,688,14496,-5772,600,101,1286,-6091
6612,674,683,880,894,688,14288,-5580,632,192,1462,-6057
6615,667,688,885,883,691,14124,-5448,712,383,1538,-5931
6618,669,689,893,880,688,14228,-5460,544,416,1660,-5955
6621,660,688,897,864,686,14352,-5460,512,308,2195,-5961
6624,669,689,903,865,687,14256,-5408,792,231,2454,-5997
6627,666,695,899,869,686,14304,-5208,756,200,2747,-5900
6630,672,716,903,895,688,14288,-5136,984,118,2763,-5886
6633,685,721,903,880,685,13888,-5192,604,33,2580,-5873
6636,709,720,901,884,686,14144,-5116,888,190,2412,-5742
6639,717,719,891,886,684,14180,-4932,664,44,2664,-5688
6642,717,709,907,889,679,14184,-4912,580,107,2393,-5647
6645,713,711,895,903,690,13840,-4712,440,5,1830,-5580
6648,712,717,896,925,688,13872,-4844,628,160,1583,-5465
6651,706,719,893,929,688,13988,-4376,312,41,1456,-5429
6654,712,711,900,919,685,14332,-4280,1396,-394,1771,-5477
6657,720,699,901,912,693,14348,-4616,1084,-47,1565,-5185
6660,720,699,905,899,702,14052,-4684,788,53,1554,-5125
6663,719,699,913,873,703,14396,-4748,1216,-207,1936,-5087
6666,724,703,927,838,704,15028,-4388,1156,-224,2065,-5170
6669,730,704,939,811,709,14648,-4628,928,-183,2070,-5146
6672,730,701,951,796,707,14360,-4812,708,4,2196,-5066
6675,737,711,950,804,705,14768,-4540,872,-129,2096,-5147
6678,747,715,957,819,719,13960,-4948,1160,-176,1702,-5135
6681,752,718,961,833,725,13972,-4796,1012,-100,1298,-5031
6684,752,718,965,841,729,14492,-4800,784,-136,1353,-4951
6687,754,723,976,839,738,14700,-4688,1052,-208,1799,-4972
6690,761,727,973,837,743,14868,-4284,788,-649,1536,-5015
6693,750,720,971,830,736,14748,-4452,1268,-872,1544,-4964
6696,733,727,966,829,731,14660,-4588,860,-762,1707,-4926
6699,721,720,963,839,726,14872,-4332,1032,-818,2053,-4810
6702,720,714,955,848,733,14980,-4204,1156,-564,2251,-4786
6705,726,720,951,860,729,14344,-4316,1268,-374,2138,-4717
6708,720,720,949,863,738,13988,-5196,664,611,618,-4664
6711,741,709,949,848,738,15116,-3500,2276,-597,2064,-4735
6714,742,720,949,832,737,15088,-4956,844,228,1944,-4659
