Time,MMG1,MMG2,MMG3,MMG4,EMG,AccelX,AccelY,AccelZ,GyroX,GyroY,GyroZ
0,816,754,885,757,1839,4544,-16104,116,-836,80,-53
4,815,753,880,756,1749,4572,-16052,80,-872,74,-35
7,807,754,880,758,1673,4608,-16036,120,-846,79,-34
10,794,738,872,734,1584,4532,-16072,44,-877,68,-50
13,794,738,880,737,1502,4544,-15968,44,-882,68,-44
16,792,734,874,730,1438,4508,-16164,112,-864,63,-35
19,793,741,873,737,1370,4580,-16072,-8,-867,28,-67
22,790,733,870,733,1309,4568,-16120,108,-858,27,-29
25,791,736,871,733,1245,4484,-16128,-72,-843,7,-40
28,794,731,864,735,1181,4604,-16108,80,-846,2,-52
31,793,729,869,734,1123,4740,-16084,0,-828,52,-47
34,785,722,866,735,1070,4556,-16024,88,-795,433,-119
37,784,723,868,732,1009,4464,-15996,344,-771,400,-94
40,784,721,863,739,960,4404,-16012,24,-778,147,-61
43,784,720,869,737,910,4416,-16148,396,-725,9,-27
46,784,704,871,731,864,4528,-15872,164,-826,-36,-43
49,791,720,871,731,816,4816,-15988,56,-822,95,-82
52,789,721,871,733,770,4728,-15952,-68,-731,195,6
55,787,720,870,729,739,4828,-15900,216,-688,335,55
58,790,727,865,731,693,4776,-15984,168,-742,193,40
61,790,723,868,730,656,4572,-15964,48,-745,-118,80
64,791,727,870,732,622,4404,-15980,272,-819,-59,48
67,795,736,874,727,592,4800,-16064,-44,-901,69,33
70,797,735,874,731,560,4952,-16004,92,-781,57,136
73,795,742,870,732,524,4476,-16120,68,-770,-372,240
76,794,737,862,733,494,4532,-16236,-64,-864,-643,205
79,793,740,867,729,461,4528,-16184,20,-936,-504,123
82,791,736,869,736,437,4704,-16244,4,-943,-267,134
85,794,737,865,735,406,4612,-16312,-76,-929,-236,111
88,785,739,866,735,384,4476,-16392,0,-964,-384,122
91,786,740,870,733,357,4552,-16388,44,-925,-231,124
94,789,741,862,735,332,4632,-16352,100,-884,-196,154
97,784,739,892,740,313,4524,-16376,92,-893,-138,134
100,785,733,866,738,297,4668,-16352,-80,-865,-63,127
103,787,732,869,739,273,4592,-16432,4,-860,-88,158
106,787,727,867,739,251,4672,-16328,72,-847,13,165
109,784,722,871,740,230,4604,-16280,144,-830,34,177
112,786,717,867,741,215,4596,-16284,236,-862,22,163
115,784,721,873,743,199,4644,-16308,88,-850,-86,164
118,784,725,869,742,181,4540,-16264,276,-850,-104,159
121,784,720,869,744,163,4508,-16260,232,-835,-105,151
124,784,720,871,749,145,4704,-16220,196,-778,-140,227
127,785,720,875,746,136,4524,-16064,96,-789,-200,202
130,784,720,867,743,122,4540,-16184,300,-774,-214,206
133,784,724,867,762,110,4664,-16036,260,-712,-143,219
136,784,720,867,741,91,4464,-16128,196,-666,-146,234
139,784,720,870,746,80,4416,-16112,100,-636,-116,258
142,786,719,866,745,69,4496,-16052,268,-611,-55,235
145,786,720,872,743,62,4444,-15952,32,-589,-30,260
148,785,720,867,745,48,4408,-15916,24,-577,84,229
151,787,727,869,749,35,4304,-15928,20,-556,83,244
154,786,720,869,749,32,4240,-15920,-4,-558,44,229
157,789,720,865,743,21,4324,-15940,0,-580,26,238
160,794,724,879,742,7,4356,-16012,44,-589,127,207
163,786,725,871,741,0,4236,-16100,-192,-598,141,214
166,785,725,870,741,0,4200,-16136,24,-625,191,188
169,790,726,874,744,0,4196,-16068,-96,-645,131,213
172,794,729,872,748,0,4020,-16028,-228,-655,108,191
175,788,730,875,738,0,4096,-16112,-48,-688,32,191
178,794,732,869,739,0,3988,-16164,-124,-718,4,194
181,789,733,870,737,0,4008,-16172,-36,-749,-20,195
184,789,733,874,732,0,4120,-16300,-88,-810,-58,201
187,790,739,875,740,0,4044,-16188,-12,-796,-85,207
190,789,739,867,738,0,3996,-16276,44,-798,-279,222
193,786,735,871,736,0,3888,-16324,132,-817,-458,239
196,787,740,875,739,0,4020,-16264,124,-827,-443,260
199,786,738,871,739,0,4112,-16116,244,-865,-142,198
202,784,737,875,741,0,4028,-16128,4,-851,-148,193
205,790,742,875,739,0,4036,-16232,36,-836,-136,218
208,785,743,869,742,0,4072,-16248,320,-847,-29,199
211,790,741,874,743,0,4096,-16160,172,-786,98,191
214,787,736,867,741,0,4060,-16160,36,-780,173,210
217,791,737,871,743,0,4000,-16220,168,-783,164,184
220,790,738,865,741,0,3860,-16224,76,-786,138,195
223,787,739,879,737,0,3984,-16052,292,-773,174,166
226,784,743,870,738,0,3828,-16096,84,-779,33,170
229,789,735,867,741,0,3888,-16168,92,-794,38,145
232,794,737,875,740,0,3884,-16236,52,-819,-3,125
235,787,737,875,737,0,3984,-16120,48,-827,-26,115
238,783,738,871,737,0,3896,-16136,-52,-837,-17,99
241,790,743,871,743,0,4004,-16052,88,-835,11,93
244,792,743,873,747,0,3908,-16184,-4,-861,38,68
247,791,739,871,737,0,3972,-16084,24,-844,43,75
250,794,741,873,741,0,3892,-16224,0,-887,6,45
253,787,733,865,741,0,3812,-16164,-84,-872,7,64
256,792,735,868,744,0,3908,-16204,12,-874,80,64
259,790,732,871,742,0,3828,-16176,92,-870,27,63
262,790,734,869,745,0,3928,-16204,80,-897,13,53
265,805,723,872,742,0,3944,-16228,200,-876,9,15
268,787,731,875,741,0,3940,-16228,-32,-883,32,23
271,794,733,876,745,0,3932,-16260,-64,-852,-20,12
274,791,729,869,742,0,3840,-16240,64,-875,-74,-4
277,797,733,859,741,0,3900,-16212,68,-876,-48,-22
280,792,735,873,741,0,4004,-16136,-4,-881,18,-17
283,787,733,886,743,0,3940,-16108,88,-862,40,-32
286,794,734,870,743,0,3900,-16160,84,-872,43,-16
289,788,726,867,742,0,4036,-16216,40,-885,87,-45
292,790,733,875,738,0,4068,-16200,32,-851,84,-43
295,797,719,866,735,0,4044,-16144,44,-872,37,-38
298,791,735,865,741,0,3924,-16172,144,-882,8,-71
301,787,731,871,746,0,4040,-16168,-28,-895,-22,-58
304,786,734,867,736,0,4072,-16084,16,-879,19,-92
307,794,734,871,739,0,4088,-16232,144,-932,26,-83
310,787,735,866,736,0,3964,-16152,-32,-905,26,-88
313,789,736,874,736,0,4040,-16112,-88,-953,42,-95
316,795,736,871,735,0,4092,-16076,-44,-932,-25,-89
319,789,738,869,739,0,4088,-16012,24,-970,-51,-133
322,802,738,870,751,0,4036,-16068,44,-983,-46,-124
325,796,745,867,739,0,4036,-16156,104,-1009,-80,-118
328,798,746,870,736,0,4040,-16124,-32,-979,-34,-155
331,795,747,874,735,0,4116,-16120,252,-1025,-105,-122
334,793,745,867,736,0,4088,-15992,96,-1008,-120,-168
337,797,747,876,739,0,4128,-16136,52,-1002,-87,-151
340,791,743,873,735,0,4052,-16120,168,-976,-91,-167
343,803,745,876,737,0,4212,-16120,172,-984,-142,-166
346,797,750,875,734,0,4224,-16188,-12,-995,-143,-161
349,794,747,871,735,0,4216,-16088,28,-973,-166,-176
352,801,749,874,739,0,4120,-16080,224,-994,-142,-176
355,800,742,874,733,0,4204,-16200,224,-967,-148,-159
358,796,743,875,734,0,4180,-16140,156,-964,-130,-178
361,795,742,870,737,0,4256,-16220,140,-967,-139,-183
364,791,737,875,730,0,4172,-16188,124,-981,-136,-173
367,798,738,877,737,0,4304,-16200,76,-972,-136,-173
370,798,745,870,733,0,4348,-16260,80,-982,-140,-190
373,790,737,869,736,0,4280,-16232,216,-960,-120,-179
376,791,736,875,735,0,4272,-16100,180,-948,-133,-176
379,793,738,875,734,0,4376,-15944,240,-975,-148,-198
382,795,737,873,736,0,4276,-16080,100,-955,-107,-186
385,789,734,861,738,0,4388,-16172,164,-963,-83,-189
388,793,732,870,734,0,4368,-16208,56,-938,-76,-162
391,793,735,875,735,0,4516,-16216,72,-959,-16,-184
394,797,734,871,736,0,4468,-16228,76,-973,72,-199
397,793,729,871,741,0,4500,-16156,184,-1003,226,-204
400,793,735,876,734,0,4384,-16180,80,-964,50,-217
403,793,735,877,745,0,4288,-16208,268,-998,-123,-195
406,790,720,867,734,0,4428,-16212,240,-996,-146,-183
409,796,736,868,736,0,4448,-16124,300,-1028,-36,-195
412,791,735,869,736,0,4400,-16172,220,-1069,-182,-208
415,789,738,873,737,0,4524,-16108,136,-1102,-334,-223
418,790,737,868,735,0,4456,-16100,72,-1072,-381,-198
421,790,742,867,740,0,4560,-16192,308,-1045,-165,-153
424,789,736,870,739,0,4584,-16088,156,-1010,-20,-118
427,796,735,870,740,0,4644,-16228,88,-1006,163,-93
430,797,737,873,737,0,4604,-16300,132,-1007,180,-68
433,799,735,871,738,0,4544,-16404,276,-1010,170,-53
436,795,740,875,751,0,4352,-16204,104,-1044,-9,-72
439,797,720,865,753,0,4536,-16208,80,-1047,-30,-84
442,795,735,869,737,0,4356,-16132,88,-1086,-114,-111
445,796,735,868,740,0,4364,-16304,152,-1094,-157,-103
448,793,738,875,739,0,4360,-16288,36,-1118,-217,-137
451,798,741,871,739,0,4332,-16228,312,-1131,-296,-147
454,795,741,870,741,0,4360,-16096,120,-1118,-308,-137
457,794,741,866,737,0,4312,-16136,200,-1075,-232,-116
460,791,737,867,735,0,4324,-16156,-12,-1045,-130,-136
463,790,736,864,742,0,4228,-16164,-16,-1012,-134,-115
466,788,734,869,738,0,4196,-16196,64,-1004,-176,-100
469,786,732,880,735,0,4228,-16048,-84,-951,-155,-113
472,789,730,863,739,0,4332,-16060,148,-967,-119,-82
475,785,731,870,737,0,4264,-16172,144,-941,-88,-80
478,794,734,865,736,0,4276,-15988,-12,-965,-59,-108
481,788,735,870,745,0,4188,-16048,120,-957,-103,-90
484,791,737,868,738,0,4384,-16000,64,-940,-106,-75
487,786,731,869,742,0,4376,-15996,132,-966,-100,-55
490,788,736,867,738,0,4340,-16020,208,-992,-83,-52
493,795,739,867,737,0,4332,-16100,228,-989,-70,-62
496,793,737,864,735,0,4224,-15968,128,-1009,-89,-41
499,791,735,870,740,0,4212,-16044,160,-1002,-114,-37
502,790,738,874,738,0,4216,-16040,84,-1039,-132,-33
505,795,741,869,735,0,4372,-16140,164,-1027,-76,-41
508,787,747,874,738,0,4356,-15996,76,-1005,4,-47
511,785,746,863,734,0,4324,-16136,176,-1003,-2,-66
514,791,748,867,739,0,4216,-16188,172,-1018,-48,-45
517,789,747,870,739,0,4192,-16208,112,-1019,-137,-38
520,793,743,879,736,0,4224,-16172,84,-1013,-115,-30
523,791,750,873,754,0,4296,-16104,-8,-1008,-99,-25
526,796,743,874,732,0,4348,-16184,188,-987,-55,-26
529,791,764,869,736,0,4296,-16292,-44,-1006,-27,-42
532,791,748,866,735,0,4348,-16216,128,-990,-37,-63
535,787,747,873,736,0,4328,-16276,28,-981,0,-44
538,789,746,870,736,0,4152,-16276,100,-973,19,-95
541,790,741,869,738,0,4308,-16256,48,-996,19,-56
544,793,742,871,737,0,4220,-16232,176,-1012,42,-97
547,785,743,874,742,0,4208,-16220,220,-1010,24,-89
550,789,747,865,746,0,4216,-16140,128,-993,20,-91
553,790,743,865,738,0,4192,-16104,164,-1008,53,-92
556,785,743,865,736,0,4228,-16240,96,-971,112,-85
559,784,746,867,726,0,4240,-16168,-24,-982,72,-102
562,790,726,869,742,0,4176,-16024,60,-936,19,-73
565,789,739,863,738,0,4144,-16116,104,-963,-10,-92
568,799,741,875,739,0,4220,-16156,40,-953,10,-61
571,789,737,879,741,0,4140,-15984,28,-976,-21,-61
574,787,742,874,736,0,4192,-16088,0,-963,-51,-66
577,791,737,871,741,0,4176,-16096,56,-977,-95,-51
580,791,737,873,738,0,4176,-16008,-136,-970,-38,-46
583,794,739,873,740,0,4192,-16176,-64,-963,-19,-50
586,794,739,870,737,0,4208,-16120,4,-969,52,-28
589,789,741,875,738,0,4284,-16164,4,-986,50,-30
592,796,737,874,739,0,4204,-16240,124,-986,37,-39
595,801,743,867,735,0,4328,-16108,-20,-1013,84,-45
598,802,737,874,737,0,4180,-16312,-48,-1021,112,-74
601,788,740,871,737,0,4132,-16184,-12,-1013,-8,-66
604,788,737,886,737,0,4240,-16148,-44,-1002,35,-46
607,790,747,874,735,0,4152,-16256,24,-1081,-120,-86
610,788,737,873,738,0,4212,-16268,12,-1044,-273,-81
613,789,738,869,737,0,4228,-16264,40,-1085,-270,-111
616,787,735,873,734,0,4440,-16320,80,-1071,-240,-124
619,789,735,872,734,0,4356,-16224,56,-987,-70,-67
622,790,742,869,736,0,4384,-16252,156,-1010,11,-84
625,791,738,870,735,0,4276,-16228,12,-1012,115,-106
628,793,736,871,739,0,4272,-16392,56,-961,109,-60
631,792,738,869,749,0,4116,-16284,52,-893,95,-28
634,799,736,871,737,0,4192,-16300,96,-905,-10,-31
637,792,736,876,735,0,4156,-16288,88,-945,-103,-20
640,788,738,874,739,0,4120,-16216,124,-1033,-232,-83
643,791,737,867,734,0,4224,-16152,32,-1050,-377,-108
646,795,736,874,734,0,4344,-16240,108,-978,-379,-88
649,792,735,870,737,0,4408,-16208,108,-917,-242,-16
652,793,736,873,741,0,4440,-16164,48,-881,-123,-1
655,795,734,877,737,0,4428,-16096,68,-848,39,46
658,795,739,881,733,0,4344,-16088,60,-817,50,68
661,798,742,875,736,0,4336,-16144,-100,-840,37,74
664,795,736,877,735,0,4300,-16128,-56,-828,-42,60
667,795,737,875,737,0,4248,-16096,-76,-837,-66,96
670,791,737,870,738,0,4272,-16156,12,-855,-138,55
673,793,737,869,738,0,4272,-16088,-64,-894,-190,31
676,794,752,879,741,0,4368,-16068,-216,-900,-119,39
679,794,733,870,743,0,4300,-16112,-144,-885,-63,33
682,789,731,870,742,0,4364,-16212,-152,-897,-28,37
685,787,732,871,740,0,4400,-16164,-116,-854,25,24
688,793,734,871,736,0,4272,-16192,40,-866,26,17
691,786,730,870,745,0,4248,-16268,72,-854,20,8
694,793,733,869,740,0,4192,-16092,-28,-868,-9,-13
697,785,727,866,742,0,4264,-16072,220,-851,-32,-68
700,789,734,871,743,0,4268,-16120,60,-873,-66,-99
703,789,731,866,741,0,4116,-16020,-40,-884,-114,-92
706,786,731,871,739,0,4224,-16016,276,-896,-73,-140
709,795,736,868,741,0,4192,-16140,268,-852,1,-115
712,790,733,874,732,0,4100,-16040,188,-877,19,-142
715,794,734,866,738,0,4092,-16076,104,-851,-78,-158
718,795,731,877,734,0,4120,-16144,116,-822,-49,-106
721,794,731,867,732,0,4172,-16124,24,-820,-63,-92
724,790,738,871,735,0,4204,-16032,-152,-792,90,-71
727,795,739,871,737,0,4204,-16168,-132,-796,28,-62
730,795,748,879,736,0,4204,-16156,24,-766,-72,-14
733,795,737,871,735,0,4128,-16192,-12,-794,-226,9
736,791,737,870,737,0,4216,-16164,-12,-779,-208,54
739,794,737,866,737,0,4356,-16132,-120,-785,-109,54
742,795,738,873,736,0,4416,-16000,116,-831,-79,45
745,795,745,871,737,0,4464,-16132,104,-870,-35,31
748,789,743,867,741,0,4448,-16232,-36,-896,-50,79
751,790,741,871,735,0,4460,-16352,88,-890,-41,70
754,793,747,867,736,0,4476,-16444,80,-903,-11,51
757,788,750,887,736,0,4340,-16444,40,-927,-52,37
760,788,740,875,739,0,4248,-16312,20,-944,-32,9
763,794,739,869,738,0,4264,-16436,176,-973,-85,-10
766,790,739,867,742,0,4304,-16584,132,-950,-15,-39
769,788,743,863,741,0,4300,-16328,120,-926,-41,-20
772,791,738,870,751,0,4192,-16252,256,-925,-114,4
775,790,736,871,743,0,4288,-16348,136,-920,-210,-18
778,814,740,866,742,0,4160,-16336,156,-870,-207,-25
781,794,737,873,746,0,4272,-16412,132,-849,-231,14
784,788,733,871,743,0,4332,-16296,108,-795,-222,9
787,794,739,869,746,0,4264,-16344,-60,-787,-191,21
790,787,733,869,743,0,4380,-16408,28,-731,-79,46
793,790,733,870,743,0,4324,-16196,168,-719,-2,13
796,787,727,867,745,0,4320,-16188,0,-699,15,48
799,789,731,869,748,0,4172,-16160,248,-667,-49,45
802,794,742,878,746,0,4128,-16148,24,-682,-109,49
805,784,735,871,747,0,4316,-16096,-12,-672,97,29
808,791,730,877,741,0,4324,-16116,-28,-669,114,45
811,790,733,884,750,0,4292,-16220,-84,-714,143,14
814,785,730,870,747,0,4368,-16056,12,-696,265,-11
817,789,731,871,746,0,4228,-16056,172,-734,229,13
820,786,734,875,752,0,4272,-16144,76,-690,142,23
823,795,735,870,750,0,4236,-16000,72,-706,160,46
826,797,735,875,745,0,4236,-16064,-184,-678,134,53
829,791,737,871,745,0,4292,-16152,-108,-663,181,52
832,792,743,871,739,0,4324,-16040,20,-659,107,49
835,795,740,868,745,0,4244,-16096,-64,-653,73,45
838,798,738,877,741,0,4228,-15948,-68,-690,18,81
841,783,738,870,738,0,4268,-16116,156,-699,-29,44
844,791,739,875,742,0,4184,-16040,224,-698,-125,52
847,791,739,871,738,0,4296,-15924,0,-758,-169,57
850,795,750,876,742,0,4296,-16012,172,-794,-139,51
853,793,743,874,747,0,4300,-15904,256,-849,-170,11
856,793,743,870,743,0,4184,-15908,248,-886,-212,-3
859,789,738,881,741,0,4180,-16012,192,-873,-205,15
862,790,741,867,741,0,4100,-15900,388,-941,-233,6
865,795,739,871,734,0,4104,-15972,164,-947,-167,-23
868,790,739,874,735,0,4108,-16096,96,-936,-176,-24
871,793,741,865,737,0,4164,-15992,112,-902,-237,9
874,794,741,866,739,0,4176,-16064,4,-879,-261,-8
877,798,740,867,743,0,4136,-16116,40,-882,-213,3
880,795,743,871,736,0,4104,-16136,-32,-839,-188,6
883,799,747,869,742,0,4212,-16104,-8,-824,-85,16
886,806,745,867,743,0,4236,-16184,60,-819,-43,32
889,797,743,875,737,0,4052,-16276,20,-788,-166,54
892,795,743,871,737,0,4156,-16244,-96,-808,-92,22
895,797,747,869,741,0,3988,-16288,20,-807,-263,47
898,798,740,869,738,0,4200,-16288,0,-825,-102,25
901,791,748,876,741,0,4176,-16520,-44,-854,-120,44
904,795,740,869,739,0,4256,-16376,148,-835,-103,58
907,795,741,873,738,0,4288,-16224,-8,-859,-70,52
910,793,740,869,738,0,4200,-16224,156,-903,-70,30
913,789,747,868,742,0,4136,-16388,164,-912,-32,-22
916,793,743,866,739,0,4180,-16188,368,-928,-87,-15
919,791,750,866,741,0,4372,-16076,224,-932,20,-56
922,787,743,871,736,0,4220,-16056,132,-927,-76,-46
925,787,737,877,738,0,4288,-16128,348,-915,-43,-49
928,784,741,869,743,0,4292,-16168,352,-903,5,-61
931,787,734,867,743,0,4364,-16284,36,-893,-37,-36
934,786,731,870,743,0,4380,-16188,276,-923,-116,-68
937,786,732,867,744,0,4316,-16088,368,-912,-115,-57
940,785,741,873,741,0,4320,-16132,156,-927,-62,-69
943,784,737,867,742,0,4308,-16216,408,-940,102,-105
946,794,735,867,741,0,4188,-16304,268,-978,121,-100
949,790,720,870,752,0,4036,-16244,180,-926,-95,-93
952,790,726,875,741,0,4124,-16120,124,-974,-267,-59
955,795,726,867,739,0,4312,-16172,296,-983,-227,-94
958,788,725,878,745,0,4268,-16200,80,-941,-190,-83
961,794,725,870,750,0,4252,-16160,104,-963,-184,-63
964,790,727,867,743,0,4132,-16240,68,-1010,-288,-73
967,790,724,865,743,0,4300,-16196,144,-982,-181,-74
970,792,727,870,742,0,4296,-16164,88,-956,-168,-39
973,795,730,875,745,0,4196,-16108,140,-953,-76,-46
976,795,739,870,745,0,4224,-16272,96,-963,15,-38
979,797,729,866,746,0,4260,-16120,108,-937,72,-17
982,791,731,865,745,0,4148,-16072,120,-937,108,-17
985,797,735,871,741,0,4012,-16152,196,-959,19,-33
988,791,738,877,743,0,4148,-16068,124,-953,19,-30
991,798,744,877,739,0,4100,-16140,120,-971,-9,-33
994,793,741,873,735,0,4124,-16092,72,-970,-29,-47
997,789,739,873,738,0,4260,-16152,160,-998,16,-54
1000,794,745,870,740,0,4024,-16088,188,-1008,-62,-52
1003,796,750,874,737,0,4040,-16168,84,-1028,-208,-47
1006,791,747,883,736,0,4160,-16104,160,-1032,-241,-96
1009,788,734,877,734,0,4244,-16112,104,-1010,-175,-86
1012,787,750,871,734,0,4308,-16140,156,-1018,-105,-101
1015,788,747,877,734,0,4212,-16080,256,-1010,-138,-93
1018,787,750,877,734,0,4216,-16124,120,-1034,-120,-103
1021,789,751,877,738,0,4304,-16132,156,-1036,-142,-89
1024,794,738,873,733,0,4312,-16216,84,-1009,-81,-97
1027,787,750,877,722,0,4376,-16184,128,-1047,-48,-81
1030,791,750,875,734,0,4344,-16176,124,-1031,-42,-74
1033,786,752,871,735,0,4412,-16100,156,-1029,-26,-78
1036,790,747,874,731,0,4424,-16140,172,-1038,-20,-79
1039,793,752,875,736,0,4348,-16200,172,-1024,-29,-74
1042,787,750,871,737,0,4412,-16172,84,-1027,-35,-99
1045,789,751,872,736,0,4504,-16144,44,-1022,-73,-69
1048,786,755,878,735,0,4484,-16172,128,-1025,-60,-74
1051,793,752,874,734,0,4380,-16248,84,-1015,-61,-49
1054,789,746,874,734,0,4404,-16192,32,-1018,-32,-54
1057,791,745,874,740,0,4308,-16268,108,-997,-3,-14
1060,785,739,867,738,0,4480,-16232,164,-994,15,-20
1063,784,739,875,743,0,4464,-16384,116,-953,47,7
1066,783,737,877,739,0,4388,-16236,256,-972,89,3
1069,784,733,872,739,0,4392,-16236,12,-962,111,9
1072,789,737,871,740,0,4476,-16252,208,-954,118,13
1075,784,733,867,743,0,4420,-16312,88,-940,102,9
1078,785,731,873,745,0,4488,-16324,36,-944,19,20
1081,785,734,879,743,0,4412,-16332,12,-959,46,10
1084,786,733,878,740,0,4548,-16360,160,-941,50,22
1087,787,729,873,745,0,4384,-16232,148,-924,-29,24
1090,784,730,874,743,0,4660,-16312,212,-909,68,14
1093,785,727,871,740,0,4568,-16276,-68,-906,24,11
1096,791,731,873,741,0,4564,-16256,-12,-870,64,46
1099,785,733,867,741,0,4668,-16268,60,-876,117,35
1102,784,741,874,739,0,4516,-16196,36,-832,180,36
1105,784,740,874,739,0,4392,-16288,-16,-819,138,52
1108,791,736,871,741,0,4508,-16292,-76,-845,168,49
1111,789,738,867,738,0,4516,-16240,-12,-830,311,20
1114,787,738,877,741,0,4544,-16312,24,-823,315,17
1117,785,721,874,741,0,4364,-16280,-48,-833,219,7
1120,785,738,871,737,0,4284,-16268,-44,-860,110,-8
1123,787,741,869,733,0,4232,-16268,20,-874,103,-13
1126,785,744,872,742,0,4312,-16300,48,-850,62,-25
1129,784,745,873,741,0,4176,-16208,-116,-860,-42,-14
1132,786,746,871,739,0,4164,-16228,-24,-867,-33,15
1135,789,738,869,738,0,4236,-16168,-8,-856,60,9
1138,784,723,868,735,0,4316,-16272,92,-860,158,1
1141,784,739,869,739,0,4264,-16256,52,-817,147,25
1144,784,736,864,743,0,4232,-16252,-68,-819,95,41
1147,784,735,867,737,0,3976,-16156,48,-771,1,54
1150,787,748,874,741,0,4144,-16228,112,-745,68,44
1153,784,734,867,736,0,4244,-16300,216,-779,222,22
1156,787,736,865,739,0,4108,-16188,180,-742,191,23
1159,787,734,867,735,0,4048,-16196,40,-713,153,27
1162,791,737,866,739,0,4008,-16248,60,-708,77,10
1165,786,737,867,735,0,3908,-16100,100,-687,155,-11
1168,795,735,873,734,0,4144,-16168,-4,-667,165,-14
1171,789,736,862,735,0,3996,-16240,24,-641,108,-19
1174,786,738,868,735,0,3872,-16136,36,-647,60,-6
1177,797,734,871,740,0,4012,-16160,-72,-661,239,-39
1180,788,735,866,739,0,4032,-16148,184,-661,445,-89
1183,789,732,876,736,0,3892,-16096,88,-659,243,-48
1186,791,735,872,736,0,3760,-16184,36,-664,138,-74
1189,786,737,870,740,0,3788,-16164,-152,-662,92,-70
1192,791,729,863,735,0,3740,-16184,-168,-692,172,-105
1195,789,729,867,734,0,3688,-16140,-80,-704,206,-109
1198,790,730,868,736,0,3712,-16164,-184,-714,147,-133
1201,789,731,867,733,0,3692,-16104,-76,-751,106,-119
1204,788,733,871,731,0,3620,-16164,-56,-767,137,-181
1207,785,731,867,734,0,3716,-16176,-8,-784,78,-152
1210,790,741,867,733,0,3744,-16176,76,-799,123,-179
1213,793,738,871,736,0,3700,-16192,12,-817,114,-184
1216,787,736,868,735,0,3592,-16108,20,-849,48,-181
1219,791,738,867,727,0,3636,-16160,104,-863,86,-212
1222,791,738,864,733,0,3644,-16092,28,-879,67,-212
1225,791,742,875,730,0,3780,-16012,152,-885,118,-222
1228,788,740,866,733,0,3628,-16192,216,-894,7,-236
1231,797,740,873,729,0,3716,-16056,24,-910,-24,-243
1234,791,739,871,733,0,3808,-16092,244,-887,31,-246
1237,797,741,877,725,0,3724,-16084,244,-902,-23,-284
1240,800,741,874,735,0,3684,-16108,160,-926,-17,-294
1243,799,745,876,727,0,3764,-16012,204,-925,-105,-288
1246,800,734,867,729,0,3876,-15928,208,-955,-20,-325
1249,795,750,874,730,0,3812,-16076,180,-928,-44,-310
1252,794,745,866,725,0,3936,-15992,116,-946,-26,-344
1255,797,750,871,730,0,3900,-16040,152,-973,-51,-340
1258,797,752,874,722,0,3920,-16024,80,-946,-53,-346
1261,800,750,872,726,0,3912,-16024,16,-1039,-45,-353
1264,797,747,875,726,0,3876,-16072,112,-1027,-42,-371
1267,799,745,879,730,0,4008,-16064,84,-1027,-42,-394
1270,796,758,875,726,0,3868,-16040,116,-1065,10,-378
1273,798,741,878,727,0,4020,-16144,156,-1041,-92,-383
1276,811,743,869,727,0,4004,-16076,236,-1104,-94,-403
1279,793,744,873,733,0,4040,-16008,204,-1117,-82,-414
1282,800,737,868,730,0,4072,-16116,220,-1088,-102,-387
1285,791,738,874,731,0,4012,-16116,92,-1119,-136,-403
1288,793,735,873,732,0,4016,-16044,-36,-1116,-125,-390
1291,798,737,869,731,0,4012,-16080,256,-1103,-86,-399
1294,794,735,875,731,0,4108,-16020,124,-1144,-127,-367
1297,799,731,877,734,0,4256,-16096,512,-1092,64,-405
1300,794,734,874,734,0,4136,-16028,152,-1084,-165,-376
1303,795,743,870,736,0,4092,-16120,456,-1065,-170,-347
1306,789,736,866,732,0,4180,-15940,444,-1043,-204,-355
1309,794,738,874,727,0,4316,-15988,296,-1067,-164,-345
1312,797,745,867,730,0,4284,-15908,412,-1034,-158,-328
1315,797,737,873,735,0,4264,-15868,252,-1086,-311,-330
1318,800,746,879,729,0,4136,-15980,348,-1059,-321,-308
1321,797,742,870,729,0,4384,-15936,368,-1095,-306,-310
1324,787,749,866,730,0,4292,-15976,368,-1100,-181,-279
1327,787,743,879,732,0,4536,-15996,200,-1141,-170,-303
1330,791,744,869,734,0,4376,-15996,216,-1151,-245,-281
1333,796,743,875,730,0,4520,-15996,304,-1191,-148,-295
1336,798,749,865,737,0,4524,-15840,400,-1184,-96,-302
1339,796,749,879,729,0,4440,-15972,264,-1198,-210,-252
1342,795,745,871,734,0,4396,-16024,280,-1223,-226,-269
1345,798,750,878,727,0,4528,-16000,236,-1238,-283,-260
1348,793,747,874,730,0,4712,-16092,228,-1248,-222,-268
1351,796,748,869,733,0,4684,-16100,180,-1281,-258,-288
1354,800,750,869,734,0,4576,-16128,228,-1288,-281,-314
1357,798,749,869,733,0,4708,-16140,120,-1262,-299,-297
1360,797,758,875,732,0,4664,-16216,168,-1286,-312,-283
1363,795,752,873,733,0,4684,-16280,280,-1299,-352,-307
1366,799,749,875,733,0,4692,-16324,80,-1279,-299,-306
1369,800,746,874,734,0,4636,-16512,148,-1231,-430,-262
1372,793,746,867,735,0,4616,-16552,8,-1246,-582,-250
1375,794,750,869,733,0,4748,-16572,148,-1214,-589,-227
1378,795,742,871,737,0,4884,-16492,296,-1217,-532,-207
1381,798,742,873,747,0,4788,-16664,128,-1182,-516,-202
1384,795,741,866,738,0,4820,-16660,84,-1177,-430,-191
1387,795,747,871,735,0,4708,-16660,196,-1152,-658,-173
1390,794,741,869,739,0,4824,-16720,64,-1118,-660,-125
1393,789,746,869,737,0,4852,-16636,64,-1130,-585,-159
1396,785,747,876,740,0,4764,-16640,100,-1008,-502,-79
1399,795,736,876,739,0,4800,-16540,100,-957,-377,-90
1402,788,734,871,736,0,4628,-16468,4,-927,-482,-51
1405,783,739,870,738,0,4712,-16308,52,-889,-454,-35
1408,784,743,867,720,0,4756,-16320,128,-831,-336,-22
1411,786,742,866,738,0,4652,-16232,100,-733,-237,20
1414,795,739,876,737,0,4532,-16056,116,-764,-387,41
1417,785,726,866,743,0,4620,-16056,56,-694,-250,83
1420,785,744,869,735,0,4540,-15960,-4,-660,-167,62
1423,786,734,871,739,0,4656,-15812,20,-580,-80,91
1426,787,731,867,738,0,4540,-15744,88,-588,-16,109
1429,789,733,869,739,0,4360,-15712,36,-555,7,89
1432,784,731,866,741,0,4444,-15648,-132,-526,-142,114
1435,791,729,874,741,0,4340,-15568,96,-520,-135,102
1438,797,735,865,742,0,4324,-15376,68,-526,-121,84
1441,790,733,869,742,0,4244,-15236,124,-575,-4,4
1444,795,730,867,740,0,4232,-15500,44,-588,-74,-6
1447,794,729,870,739,0,4184,-15416,8,-651,-206,-36
1450,799,733,869,739,0,4284,-15520,52,-711,-234,-56
1453,802,731,874,739,0,4280,-15544,-164,-723,-192,-76
1456,798,726,874,745,0,4356,-15748,-32,-791,-214,-80
1459,797,727,877,740,0,4352,-15696,-44,-836,-242,-113
1462,795,725,869,742,0,4288,-15864,-16,-884,-224,-124
1465,795,727,866,743,0,4304,-15900,-8,-940,-212,-124
1468,795,731,867,741,0,4232,-15900,-128,-974,-251,-117
1471,795,727,876,746,0,4332,-15928,72,-1041,-236,-154
1474,799,734,873,739,0,4180,-16104,172,-1046,-217,-136
1477,791,736,871,738,0,4176,-16268,-36,-1065,-280,-140
1480,794,741,879,742,0,4164,-16180,4,-1115,-372,-158
1483,801,749,875,751,0,4184,-16300,96,-1122,-350,-163
1486,794,749,871,734,0,4224,-16160,236,-1157,-310,-202
1489,798,751,869,735,0,4152,-16220,312,-1150,-320,-168
1492,784,755,870,735,0,4064,-16200,144,-1142,-339,-147
1495,787,754,871,734,0,4232,-16168,288,-1112,-323,-100
1498,793,757,876,731,0,4292,-16220,248,-1149,-291,-142
1501,790,759,880,733,0,4304,-16232,308,-1149,-245,-123
1504,787,756,870,727,0,4348,-16068,192,-1138,-218,-115
1507,794,754,873,734,0,4292,-16132,228,-1135,-198,-88
1510,784,754,875,731,0,4308,-16212,280,-1119,-165,-99
1513,784,757,880,734,0,4344,-16184,220,-1101,-104,-93
1516,789,757,873,734,0,4284,-16188,180,-1057,-51,-81
1519,795,762,881,734,0,4308,-16108,144,-1026,-54,-93
1522,794,756,869,733,0,4312,-16068,72,-1019,-42,-51
1525,791,758,871,733,0,4376,-16216,184,-1000,16,-74
1528,805,751,872,734,0,4260,-16120,144,-1021,-17,-82
1531,790,751,877,737,0,4284,-16072,156,-1035,4,-109
1534,785,751,870,736,0,4212,-16060,120,-1028,-45,-132
1537,787,745,873,739,0,4184,-16068,168,-1054,-34,-159
1540,788,735,867,741,0,4168,-15920,88,-1044,-5,-157
1543,786,738,868,737,0,4068,-15980,72,-1050,-12,-154
1546,786,737,866,738,0,4152,-15948,240,-1088,-18,-157
1549,791,733,869,733,0,4084,-15932,28,-1057,-4,-137
1552,786,715,877,739,0,4112,-16088,192,-1048,-52,-152
1555,789,733,875,741,0,4020,-15940,-60,-1058,-41,-151
1558,785,731,872,748,0,4020,-16056,88,-1027,-88,-120
1561,786,730,874,741,0,4108,-16024,-84,-1051,-95,-104
1564,789,737,871,742,0,3960,-16012,88,-1050,-84,-126
1567,787,747,873,741,0,4140,-15956,200,-1068,-60,-123
1570,788,739,862,740,0,4036,-16196,0,-1099,-10,-127
1573,795,738,877,749,0,4072,-16140,132,-1052,-410,-20
1576,795,746,875,742,0,4260,-16056,-12,-1133,-223,-69
1579,798,742,873,746,0,4144,-16088,0,-1177,-245,-102
1582,793,750,879,742,0,4212,-16120,76,-1113,-67,-100
1585,799,741,871,740,0,4068,-16196,-56,-1193,-47,-147
1588,795,748,869,742,0,4100,-16240,-48,-1236,-165,-154
1591,801,746,871,738,0,4204,-16252,132,-1263,-164,-189
1594,793,746,877,740,0,4176,-16152,36,-1302,-146,-208
1597,793,752,874,737,0,4000,-16228,32,-1343,-242,-234
1600,796,753,867,736,0,4108,-16204,32,-1360,-185,-225
1603,799,757,873,737,0,4228,-16176,-20,-1360,-69,-252
1606,795,756,873,741,0,4068,-16244,-92,-1405,-95,-290
1609,801,752,874,733,0,4108,-16276,-88,-1386,-143,-308
1612,800,771,877,747,0,4044,-16324,-16,-1327,-1,-287
1615,799,759,874,732,0,4140,-16188,-132,-1273,-18,-271
1618,816,766,871,729,0,3928,-16248,-380,-1287,-238,-275
1621,804,758,870,729,0,3824,-16188,-176,-1288,-188,-267
1624,798,757,875,730,0,4020,-16272,-124,-1246,-215,-266
1627,816,752,875,732,0,4132,-16180,-204,-1206,-128,-223
1630,798,752,874,731,0,4004,-16200,-16,-1174,-273,-203
1633,797,754,880,732,0,3980,-16112,72,-1261,-156,-305
1636,794,751,871,733,0,4200,-16072,0,-1182,47,-313
1639,797,753,877,736,0,4096,-16108,-332,-1227,-70,-338
1642,795,750,880,732,0,4156,-16088,-296,-1213,-149,-403
1645,793,749,874,739,0,4152,-16080,-104,-1176,-66,-411
1648,800,752,875,735,0,4184,-16208,0,-1179,3,-422
1651,793,752,880,733,0,4072,-16116,-72,-1144,-6,-405
1654,797,755,879,731,0,4036,-16200,-32,-1119,51,-389
1657,790,753,875,727,0,4124,-16328,-40,-1029,-7,-336
1660,792,752,874,737,0,4096,-16244,48,-1013,-8,-300
1663,793,753,878,737,0,4088,-16208,104,-1012,63,-302
1666,788,752,877,738,0,4196,-16268,-48,-1039,-112,-286
1669,791,753,879,734,0,4156,-16228,-80,-995,-329,-262
1672,790,750,875,739,0,4292,-16328,112,-945,-159,-219
1675,797,752,871,737,0,4192,-16288,-204,-932,-378,-175
1678,791,741,869,741,0,4272,-16252,164,-952,-274,-217
1681,794,741,877,739,0,4292,-16296,-132,-997,-447,-210
1684,791,738,869,746,0,4444,-16212,-36,-1026,-383,-222
1687,786,737,880,745,0,4476,-16180,-232,-1018,-406,-203
1690,802,738,879,743,0,4564,-16108,-132,-1083,-379,-228
1693,790,743,879,747,0,4568,-16180,4,-1148,-277,-236
1696,791,737,871,743,0,4500,-16116,-216,-1092,-444,-254
1699,794,735,874,742,0,4408,-16068,-20,-1085,-616,-242
1702,791,734,871,746,0,4456,-16200,-156,-1137,-747,-223
1705,800,737,871,750,0,4652,-16056,-56,-1171,-609,-259
1708,797,730,879,746,0,4708,-16076,-76,-1194,-474,-281
1711,800,737,880,745,0,4692,-16188,-308,-1209,-520,-251
1714,800,739,876,746,0,4680,-16084,-192,-1215,-517,-279
1717,804,735,880,737,0,4696,-16164,-84,-1242,-408,-281
1720,801,738,880,742,0,4628,-16112,-248,-1222,-456,-275
1723,803,738,879,742,0,4492,-16140,-160,-1225,-457,-278
1726,802,736,874,738,0,4732,-16228,-100,-1182,-324,-257
1729,801,741,880,740,0,4684,-16116,-180,-1153,-443,-217
1732,804,752,880,738,0,4612,-16240,-288,-1144,-570,-147
1735,801,741,879,739,0,4592,-16308,-180,-1164,-488,-204
1738,800,729,874,741,0,4648,-16276,-204,-1162,-390,-183
1741,799,727,870,739,0,4656,-16304,-96,-1180,-356,-174
1744,795,729,879,745,0,4556,-16352,-280,-1205,-469,-159
1747,795,731,877,738,0,4652,-16272,-84,-1223,-479,-146
1750,798,724,871,742,0,4752,-16404,-176,-1244,-146,-154
1753,794,727,871,744,0,4752,-16452,36,-1198,-334,-120
1756,787,721,875,743,0,4672,-16296,-40,-1227,-477,-87
1759,785,721,871,741,0,4828,-16436,-204,-1231,-501,-120
1762,784,724,871,743,0,4940,-16308,-100,-1198,-266,-81
1765,784,721,873,747,0,4924,-16312,156,-1196,-158,-57
1768,784,725,875,745,0,4932,-16352,120,-1177,-160,-66
1771,784,723,873,746,0,4936,-16264,168,-1150,-149,-45
1774,782,724,866,747,0,4948,-16276,-100,-1076,-192,10
1777,779,720,869,749,0,4876,-16308,216,-1052,-68,32
1780,784,724,868,750,0,5052,-16204,228,-1017,-48,63
1783,784,721,867,746,0,4968,-16144,280,-1005,4,57
1786,783,725,867,746,0,5012,-16132,204,-955,-34,58
1789,778,724,874,749,0,4988,-15956,404,-935,9,75
1792,784,725,869,751,0,4840,-16012,192,-880,17,79
1795,790,735,870,747,0,4924,-16052,328,-877,-7,107
1798,785,729,877,750,0,4916,-16116,244,-823,68,110
1801,790,730,874,748,0,4856,-15884,316,-850,59,66
1804,791,737,878,746,0,4772,-16092,212,-842,55,75
1807,797,749,876,750,0,4656,-15964,84,-826,45,100
1810,795,741,872,743,0,4664,-16028,144,-816,58,105
1813,796,746,877,743,0,4640,-16116,132,-813,57,120
1816,794,746,874,746,0,4528,-16088,28,-794,68,105
1819,791,743,879,745,0,4488,-16120,92,-815,30,103
1822,795,747,876,745,0,4436,-16192,-56,-821,59,134
1825,791,750,874,743,0,4304,-16172,24,-833,57,136
1828,791,746,875,747,0,4456,-16232,52,-851,66,147
1831,796,749,874,746,0,4328,-16144,-8,-869,33,145
1834,794,746,873,745,0,4372,-16176,-64,-883,7,144
1837,799,750,879,741,0,4392,-16144,-168,-911,-13,135
1840,795,752,875,739,0,4344,-16124,72,-928,-20,131
1843,794,750,875,738,0,4348,-16256,-24,-970,35,131
1846,788,752,875,737,0,4336,-16164,-128,-974,68,121
1849,794,772,874,742,0,4340,-16188,8,-992,52,114
1852,785,753,874,740,0,4324,-16108,0,-1025,38,110
1855,791,753,870,738,0,4316,-16196,128,-1046,11,80
1858,784,755,870,736,0,4348,-16220,-64,-1046,-16,71
1861,790,755,871,737,0,4380,-16120,-8,-1070,-2,68
1864,789,756,874,737,0,4312,-16048,340,-1063,-17,64
1867,786,754,869,735,0,4352,-16056,36,-1085,1,20
1870,785,762,867,743,0,4192,-16036,108,-1102,-52,10
1873,788,757,867,743,0,4232,-16112,84,-1102,-69,7
1876,786,754,873,738,0,4224,-16164,196,-1104,-107,-3
1879,787,759,871,735,0,4296,-16080,160,-1112,-99,-12
1882,786,755,868,735,0,4176,-16172,84,-1089,-163,-9
1885,784,753,873,735,0,4228,-16084,136,-1071,-179,-36
1888,788,752,867,746,0,4160,-16152,8,-1067,-186,-24
1891,785,751,871,737,0,4276,-16112,48,-1040,-188,-26
1894,789,752,873,737,0,4332,-16096,12,-1037,-140,-7
1897,785,747,869,741,0,4360,-16152,16,-1007,-94,-26
1900,791,747,875,741,0,4292,-16132,-36,-1045,-127,-24
1903,789,743,870,739,0,4208,-16020,-244,-1028,-154,-28
1906,784,735,867,741,0,4168,-16184,-60,-1055,-116,-23
1909,785,738,871,747,0,4168,-16208,-164,-1070,-183,-28
1912,784,734,866,741,0,4108,-16236,-236,-1102,-334,22
1915,786,734,866,742,0,4388,-16320,-136,-1141,-417,70
1918,786,733,871,740,0,4452,-16140,-56,-1197,-221,35
1921,785,729,869,744,0,4408,-16208,-432,-1141,-203,47
1924,788,730,868,742,0,4356,-16140,-168,-1175,-21,-26
1927,784,727,870,741,0,4208,-16228,-196,-1135,-182,-13
1930,800,731,869,743,0,4068,-16160,-400,-1138,-239,19
1933,784,733,870,742,0,4108,-16008,-164,-1202,-210,-26
1936,783,730,871,746,0,4040,-16048,-216,-1188,-193,-14
1939,789,731,868,743,0,4280,-16068,-160,-1236,-352,8
1942,786,731,875,737,0,4128,-16012,-224,-1312,-393,-48
1945,785,731,875,741,0,4224,-15940,-152,-1370,-357,-109
1948,794,736,871,741,0,4168,-15972,-136,-1352,-151,-111
1951,785,727,870,743,0,4204,-16008,-152,-1331,-151,-125
1954,784,734,867,745,0,4028,-16040,-416,-1294,-269,-111
1957,791,738,870,742,0,3984,-16004,-328,-1287,-376,-141
1960,791,735,873,738,0,4176,-16000,-284,-1249,-251,-108
1963,787,733,871,739,0,4200,-16096,-264,-1244,-207,-115
1966,791,743,878,733,0,4144,-16116,-332,-1225,-139,-95
1969,796,741,875,735,0,4132,-16100,-320,-1213,-195,-95
1972,790,746,870,738,0,4156,-16152,-328,-1222,-225,-132
1975,796,737,869,740,0,4052,-16076,-564,-1233,-341,-101
1978,798,739,873,735,0,4132,-16008,-508,-1197,-341,-100
1981,798,745,873,730,0,4260,-16052,-272,-1202,-231,-115
1984,801,735,873,736,0,4116,-16044,-532,-1286,-309,-146
1987,797,746,877,742,0,4148,-15988,-368,-1299,-349,-152
1990,797,745,870,737,0,4216,-16132,-372,-1264,-269,-128
1993,797,746,877,735,0,4272,-16004,-296,-1263,-200,-171
1996,795,738,888,735,0,4212,-16068,-352,-1253,-259,-134
1999,802,747,875,736,0,4120,-16168,-328,-1215,-285,-118
2002,795,739,875,733,0,4036,-16060,-244,-1163,-208,-98
2005,798,745,874,735,0,4196,-16100,-128,-1162,-264,-97
2008,795,739,877,737,0,4164,-16156,-188,-1148,-330,-87
2011,794,747,874,738,0,4064,-16220,-380,-1137,-469,-61
2014,794,745,874,735,0,4168,-16160,-360,-1089,-452,-74
2017,799,742,878,735,0,4160,-16164,-324,-1060,-420,-69
2020,801,730,877,736,0,4196,-16192,-296,-1082,-449,-44
2023,798,743,877,737,0,4160,-16152,-404,-1038,-444,-61
2026,801,739,878,742,0,4284,-16276,-296,-1007,-381,-47
2029,798,736,874,735,0,4216,-16172,-352,-987,-210,-36
2032,795,735,874,742,0,4284,-16204,-220,-949,-37,-45
2035,801,739,871,735,0,4012,-16196,-228,-918,-242,-6
2038,800,736,880,737,0,4164,-16188,-284,-878,-293,0
2041,795,736,873,758,0,4300,-16236,-304,-896,-214,6
2044,791,723,875,738,0,4292,-16288,-384,-900,-140,27
2047,795,730,876,738,0,4212,-16240,-360,-886,-119,36
2050,794,742,863,743,0,4232,-16276,-168,-895,-227,25
2053,795,727,875,741,0,4268,-16204,-268,-893,-165,36
2056,794,723,869,739,0,4304,-16224,-268,-922,-181,53
2059,796,719,875,741,0,4204,-16256,-192,-892,-160,67
2062,795,716,865,741,0,4448,-16216,12,-909,-21,28
2065,798,720,879,739,0,4312,-16320,-244,-908,-98,54
2068,799,721,878,732,0,4320,-16296,-136,-883,-136,72
2071,795,719,874,735,0,4320,-16248,-236,-868,-153,41
2074,799,721,880,735,0,4352,-16244,-144,-856,-213,53
2077,807,725,879,732,0,4388,-16312,-144,-868,-161,57
2080,799,726,880,734,0,4656,-16192,-200,-861,-101,9
2083,806,729,880,736,0,4648,-16176,-140,-856,4,32
2086,799,731,877,731,0,4456,-16264,-188,-813,-99,33
2089,803,733,879,731,0,4524,-16216,-252,-806,-152,13
2092,797,730,875,733,0,4560,-16364,-380,-800,-121,29
2095,802,728,873,733,0,4520,-16360,-144,-768,-19,23
2098,795,732,880,729,0,4532,-16368,-380,-759,18,23
2101,799,733,879,734,0,4512,-16372,-224,-761,-6,0
2104,799,727,879,736,0,4544,-16392,-376,-755,-16,-7
2107,794,726,877,735,0,4708,-16480,-312,-720,-3,24
2110,794,723,875,734,0,4624,-16412,-224,-693,30,1
2113,790,727,870,743,0,4596,-16488,-280,-692,-29,15
2116,789,733,873,745,0,4752,-16444,-220,-688,21,14
2119,786,726,875,735,0,4724,-16476,-264,-671,10,12
2122,786,727,873,735,0,4708,-16376,-132,-641,36,21
2125,787,731,882,735,0,4716,-16400,64,-642,59,44
2128,784,733,871,738,0,4680,-16412,-68,-605,66,70
2131,787,738,877,736,0,4636,-16368,-140,-616,44,60
2134,784,746,868,734,0,4628,-16236,36,-622,19,86
2137,784,751,875,739,0,4712,-16240,188,-587,64,86
2140,790,750,877,740,0,4552,-16196,20,-580,112,116
2143,785,752,880,736,0,4748,-16168,116,-582,111,113
2146,785,751,877,736,0,4660,-16124,52,-537,174,173
2149,790,749,880,735,0,4700,-16176,316,-532,149,170
2152,788,739,876,737,0,4768,-16160,-108,-513,121,184
2155,787,730,880,742,0,4772,-15996,120,-480,155,189
2158,784,730,870,745,0,4816,-16064,-56,-476,186,190
2161,785,730,880,743,0,4824,-16152,88,-450,245,172
2164,787,729,875,738,0,4716,-16168,-28,-435,252,168
2167,787,727,873,753,0,4728,-16156,-28,-423,237,162
2170,790,733,869,751,0,4688,-16096,-200,-420,290,144
2173,785,763,867,752,0,4592,-16256,-208,-394,250,143
2176,785,737,875,752,0,4648,-16248,-300,-398,216,159
2179,788,736,867,750,0,4480,-16236,-464,-367,200,145
2182,786,735,865,750,0,4512,-16256,-268,-340,169,151
2185,785,734,868,752,0,4576,-16280,-204,-343,130,122
2188,785,735,873,740,0,4468,-16188,-300,-276,30,144
2191,788,732,871,747,0,4220,-16120,-300,-330,-236,154
2194,787,731,867,743,0,4268,-16240,-200,-285,-255,171
2197,784,730,867,741,0,4292,-16228,-320,-339,-217,182
2200,779,726,876,743,0,4416,-16100,-164,-373,-62,145
2203,784,734,871,747,0,4324,-16028,-264,-392,74,163
2206,783,730,875,746,0,4348,-16056,-304,-413,94,196
2209,784,732,871,746,0,4304,-15964,-28,-437,137,188
2212,784,734,874,758,0,4344,-15956,-208,-464,146,243
2215,784,735,875,743,0,4220,-15956,-32,-453,192,265
2218,784,734,870,745,0,4176,-15892,84,-499,189,252
2221,784,736,870,747,0,4180,-15952,-32,-547,228,272
2224,773,741,874,739,0,4184,-15896,-140,-530,142,288
2227,785,743,869,742,0,4156,-15972,12,-558,92,322
2230,786,741,877,742,0,4088,-15928,-112,-594,-33,308
2233,784,738,871,740,0,4092,-15820,-80,-588,-82,333
2236,787,734,869,743,0,4260,-15812,-20,-620,-131,325
2239,791,737,870,751,0,4216,-15912,-128,-652,-212,336
2242,789,740,879,739,0,4244,-15928,-52,-699,-217,329
2245,794,736,877,739,0,4204,-15816,32,-741,-253,305
2248,794,739,873,745,0,4292,-15772,44,-781,-111,259
2251,794,741,878,743,0,4264,-15944,-176,-786,-98,261
2254,791,737,879,745,0,4304,-15964,-28,-764,-87,266
2257,800,736,875,747,0,4108,-15844,12,-827,-161,228
2260,800,736,877,749,0,4004,-16064,-76,-754,-250,274
2263,799,733,868,749,0,4064,-16024,20,-823,-236,229
2266,798,739,878,746,0,4124,-16092,0,-786,-248,224
2269,795,736,875,748,0,3952,-16024,124,-850,-267,178
2272,795,735,878,746,0,4088,-16264,-68,-839,-306,174
2275,797,739,871,747,0,4124,-16260,28,-825,-226,152
2278,797,735,877,747,0,3976,-16168,20,-827,-193,130
2281,798,737,869,743,0,3916,-16468,-120,-757,-203,151
2284,794,738,876,740,0,3952,-16324,-72,-790,-234,165
2287,793,735,876,739,0,4048,-16424,-84,-797,-195,156
2290,791,735,879,740,0,3924,-16388,-168,-776,-245,163
2293,800,738,875,738,0,3900,-16364,-76,-784,-238,132
2296,789,738,874,738,0,3952,-16476,-96,-775,-241,149
2299,790,741,878,736,0,3820,-16360,-12,-730,-240,155
2302,788,738,880,738,0,4048,-16456,-56,-768,-253,156
2305,787,743,879,747,0,3880,-16384,-124,-706,-271,121
2308,786,747,878,738,0,3944,-16332,-224,-697,-259,155
2311,786,746,879,738,0,4088,-16344,-24,-717,-118,141
2314,789,751,877,755,0,3944,-16324,-44,-712,-236,141
2317,791,742,880,735,0,4204,-16384,-8,-745,-119,126
2320,785,740,870,739,0,4004,-16260,-144,-715,-75,180
2323,784,741,879,733,0,4076,-16316,-168,-742,-8,155
2326,783,736,878,734,0,4056,-16332,-12,-717,-134,160
2329,784,734,865,734,0,3984,-16272,-168,-740,-140,132
2332,784,734,874,736,0,4012,-16212,12,-726,-113,131
2335,784,734,875,731,0,4048,-16192,76,-703,-29,104
2338,788,731,874,739,0,4016,-16196,-68,-706,-57,72
2341,787,730,880,741,0,3940,-16308,-48,-686,-161,49
2344,792,730,877,738,0,4116,-16240,-20,-689,-246,36
2347,792,731,874,739,0,4112,-16148,-100,-661,-284,12
2350,787,729,870,738,0,4124,-16204,100,-660,-223,1
2353,794,734,877,739,0,4088,-16136,-8,-617,-130,-6
2356,794,730,879,739,0,4032,-16160,-68,-588,-138,-13
2359,795,726,871,741,0,4012,-16228,-80,-572,-140,-18
2362,795,723,877,744,0,4108,-16104,68,-572,-106,-13
2365,793,727,878,741,0,4148,-16180,72,-534,-46,-2
2368,791,730,871,738,0,4040,-16048,-200,-527,-29,-12
2371,791,731,871,743,0,3968,-16208,-124,-546,-30,-3
2374,794,725,875,737,0,4164,-16188,-140,-542,-5,1
2377,799,734,874,742,0,4184,-16160,48,-545,-25,-1
2380,800,731,878,741,0,4016,-16128,92,-542,-71,13
2383,794,729,878,740,0,4176,-16168,-16,-551,-67,34
2386,791,733,877,743,0,4208,-16156,36,-559,-41,7
2389,796,736,878,735,0,4044,-16096,-16,-591,-62,34
2392,796,734,880,738,0,4136,-16100,52,-595,-80,19
2395,793,733,877,742,0,4208,-16096,0,-626,-56,21
2398,791,735,875,741,0,4276,-15984,176,-626,25,39
2401,794,743,877,734,0,4128,-16028,156,-641,-91,20
2404,793,743,875,748,0,4212,-15984,28,-658,-118,41
2407,791,745,871,733,0,4128,-16028,108,-702,-104,10
2410,795,743,877,734,0,4212,-16080,8,-692,-68,33
2413,798,741,880,736,0,4216,-16040,68,-714,-110,4
2416,790,742,878,735,0,4180,-15864,-60,-725,-126,29
2419,791,741,880,735,0,4276,-15992,60,-729,-135,-6
2422,789,743,879,741,0,4280,-16016,-88,-747,-139,7
2425,795,738,878,735,0,4200,-16012,4,-752,-155,-36
2428,784,739,878,736,0,4180,-16008,-16,-761,-135,-14
2431,794,740,874,736,0,4292,-16072,124,-764,-142,-44
2434,788,743,876,736,0,4220,-16088,104,-773,-145,-47
2437,782,743,877,739,0,4272,-16100,36,-767,-150,-47
2440,795,748,875,737,0,4176,-16144,52,-754,-118,-50
2443,795,748,878,735,0,4132,-16068,60,-770,-123,-73
2446,794,746,877,738,0,4152,-16164,100,-755,-126,-39
2449,791,748,875,736,0,4136,-16200,148,-775,-106,-85
2452,790,751,880,735,0,4236,-16196,116,-763,-79,-58
2455,795,754,880,738,0,4280,-16188,204,-779,-70,-41
2458,795,752,880,737,0,4272,-16288,136,-778,-25,-70
2461,796,749,878,733,0,4168,-16268,132,-773,24,-58
2464,791,744,867,741,0,4192,-16152,184,-778,40,-63
2467,793,745,879,739,0,4196,-16208,96,-790,23,-40
2470,790,737,871,738,0,4188,-16240,72,-768,-9,-30
2473,790,735,875,745,0,4244,-16308,300,-757,-48,-8
2476,788,731,871,743,0,4192,-16204,160,-801,9,0
2479,786,736,872,743,0,4092,-16304,460,-817,22,-24
2482,786,732,875,742,0,4220,-16196,188,-828,22,-21
2485,785,737,880,742,0,4252,-16248,192,-840,15,-27
2488,788,736,877,747,0,4260,-16120,300,-828,-8,-15
2491,789,721,875,742,0,4272,-16212,112,-822,-10,-29
2494,784,736,876,741,0,4408,-16188,188,-861,-5,-51
2497,787,734,869,738,0,4356,-16176,216,-832,17,-17
2500,788,739,877,741,0,4320,-16200,244,-862,17,-35
2503,784,737,876,741,0,4344,-16088,76,-867,15,-23
2506,794,738,880,742,0,4352,-16084,192,-898,31,-47
2509,794,742,880,747,0,4292,-16120,160,-868,26,-42
2512,789,740,873,741,0,4352,-16100,48,-866,41,-76
2515,795,743,871,747,0,4300,-16212,200,-879,51,-52
2518,784,739,877,745,0,4400,-16156,240,-867,75,-64
2521,789,738,870,747,0,4264,-16108,16,-849,54,-57
2524,789,738,869,743,0,4256,-16132,68,-879,81,-86
2527,793,741,879,743,0,4252,-16124,68,-887,48,-73
2530,792,741,875,739,0,4252,-16096,108,-875,90,-48
2533,794,741,871,742,0,4300,-16024,260,-873,36,-63
2536,791,749,875,743,0,4252,-16048,84,-901,84,-81
2539,795,747,875,748,0,4212,-16164,-16,-876,57,-60
2542,793,751,874,742,0,4308,-16152,92,-890,27,-64
2545,793,747,877,741,0,4296,-16144,60,-898,0,-44
2548,795,747,875,739,0,4208,-16012,72,-887,11,-68
2551,785,746,878,738,0,4324,-16156,128,-920,-9,-22
2554,790,748,875,735,0,4248,-16052,-24,-921,5,-52
2557,789,750,879,737,0,4332,-16196,96,-915,-7,-10
2560,794,746,883,741,0,4248,-16112,144,-885,35,-16
2563,790,747,871,736,0,4260,-16140,44,-890,15,-11
2566,782,753,875,733,0,4328,-16160,128,-906,34,13
2569,787,747,879,740,0,4336,-16100,196,-899,23,4
2572,782,741,875,735,0,4352,-16132,164,-879,40,3
2575,789,749,875,735,0,4400,-16180,104,-890,24,22
2578,784,749,874,735,0,4428,-15992,280,-892,37,13
2581,793,752,876,737,0,4424,-16108,316,-886,13,7
2584,789,752,867,736,0,4268,-16164,296,-892,30,40
2587,784,752,877,739,0,4228,-16108,148,-883,10,17
2590,793,747,871,737,0,4292,-16116,288,-864,17,32
2593,787,752,875,737,0,4332,-16148,300,-881,41,4
2596,784,749,871,739,0,4376,-16108,304,-890,35,44
2599,787,746,876,741,0,4260,-16108,200,-854,44,35
2602,786,743,873,748,0,4376,-16136,260,-867,40,27
2605,790,747,873,747,0,4236,-16088,248,-870,-55,17
2608,796,744,867,746,0,4336,-16132,144,-874,-161,33
2611,789,743,868,747,0,4300,-16136,96,-923,-65,10
2614,787,740,864,751,0,4432,-16124,92,-927,37,-51
2617,785,739,867,750,0,4320,-16168,180,-955,-81,-24
2620,793,731,869,752,0,4200,-16120,208,-1004,-120,-61
2623,790,735,873,746,0,4328,-16180,144,-1021,-173,-51
2626,793,734,869,746,0,4220,-16192,144,-999,-204,-40
2629,794,731,869,746,0,4200,-16096,196,-1062,-191,-60
2632,793,731,868,746,0,4088,-16164,136,-1081,-171,-41
2635,798,736,869,747,0,4204,-16208,48,-1088,-136,-45
2638,794,731,866,747,0,4100,-16064,148,-1090,-147,-73
2641,791,737,867,757,0,4064,-16068,-12,-1150,-129,-65
2644,794,735,869,746,0,4136,-16136,268,-1149,-77,-102
2647,790,737,874,743,0,4024,-16076,152,-1164,-56,-96
2650,790,737,871,745,0,3900,-16160,-4,-1181,-76,-119
2653,793,726,874,741,0,3848,-16156,-64,-1223,-185,-124
2656,794,739,874,742,0,3804,-16152,140,-1231,-133,-109
2659,797,740,873,740,0,3828,-16204,52,-1221,-188,-117
2662,790,739,867,741,0,3876,-16200,4,-1230,-175,-133
2665,790,738,867,742,0,3840,-16112,-76,-1228,-193,-121
2668,795,742,871,742,0,3872,-16092,112,-1250,-131,-129
2671,788,741,871,741,0,3824,-16176,52,-1205,-140,-113
2674,791,742,876,746,0,3700,-16128,-104,-1210,-143,-142
2677,790,745,880,746,0,3832,-16152,104,-1194,-117,-136
2680,791,741,875,739,0,3832,-16176,0,-1184,-136,-166
2683,798,755,878,736,0,4028,-16152,8,-1153,-93,-156
2686,795,750,873,742,0,3888,-16264,-16,-1156,-56,-172
2689,794,757,870,739,0,3908,-16220,24,-1141,-3,-166
2692,790,752,874,733,0,3836,-16208,-40,-1151,-24,-191
2695,791,755,871,728,0,3864,-16252,-76,-1141,-87,-210
2698,795,752,878,731,0,3916,-16140,32,-1177,-50,-202
2701,791,753,878,735,0,4012,-16112,-4,-1145,-27,-226
2704,796,754,875,732,0,3796,-16140,96,-1161,-68,-204
2707,796,758,875,735,0,3900,-16112,-12,-1167,-132,-194
2710,800,758,873,731,0,3952,-16192,-36,-1173,-117,-185
2713,802,754,874,734,0,4024,-16060,24,-1172,-3,-225
2716,797,755,878,737,0,4020,-16184,-120,-1108,-16,-213
2719,800,755,879,737,0,4152,-16180,16,-1121,-2,-206
2722,797,752,875,735,0,4096,-16204,-112,-1107,-74,-208
2725,799,752,878,741,0,4176,-16228,32,-1088,-24,-205
2728,795,752,870,734,0,4264,-16236,32,-1106,1,-213
2731,791,750,877,738,0,4172,-16148,-36,-1132,-16,-211
2734,794,746,875,735,0,4064,-16324,-40,-1124,-82,-218
2737,799,747,875,743,0,4172,-16256,-56,-1122,-60,-207
2740,806,746,880,737,0,4148,-16248,-4,-1125,-35,-195
2743,801,742,880,742,0,4204,-16240,-16,-1132,-80,-178
2746,795,745,877,742,0,4136,-16352,112,-1142,-159,-155
2749,789,751,875,737,0,4124,-16292,136,-1137,-190,-164
2752,784,752,894,739,0,4152,-16204,88,-1147,-221,-133
2755,768,751,882,742,0,4308,-16256,48,-1154,-261,-113
2758,766,754,881,737,0,4168,-16184,-48,-1216,-297,-132
2761,757,752,886,734,0,4148,-16088,56,-1236,-334,-109
2764,757,754,883,725,0,4284,-16052,52,-1273,-277,-114
2767,765,757,887,735,0,4264,-16044,136,-1291,-282,-87
2770,767,757,890,737,0,4220,-15988,176,-1343,-285,-83
2773,767,763,883,738,0,4288,-15988,248,-1382,-326,-80
2776,769,760,886,734,0,4356,-15964,288,-1457,-255,-102
2779,772,751,892,736,0,4396,-15896,232,-1447,-256,-86
2782,769,753,890,736,0,4268,-15848,108,-1466,-153,-75
2785,769,751,883,737,0,4456,-16056,-24,-1472,-108,-98
2788,771,751,885,737,0,4420,-15956,132,-1446,-90,-102
2791,778,746,881,737,0,4396,-15896,-116,-1440,61,-74
2794,783,746,885,738,0,4472,-15932,-128,-1392,64,-124
2797,784,746,881,743,0,4412,-15968,-168,-1371,69,-102
2800,786,751,880,739,0,4404,-15952,-140,-1352,155,-158
2803,787,741,873,739,0,4408,-16104,-80,-1282,198,-118
2806,788,743,882,738,0,4472,-16100,-88,-1240,148,-164
2809,786,749,880,742,0,4308,-16092,-396,-1204,-117,-95
2812,791,750,880,741,0,4404,-16172,-288,-1199,-142,-116
2815,790,756,880,740,0,4624,-16084,-84,-1186,-81,-110
2818,791,757,880,742,0,4464,-16148,-208,-1209,-70,-138
2821,791,762,877,737,0,4400,-16124,-216,-1182,-149,-104
2824,789,762,873,743,0,4352,-16196,-200,-1213,-250,-109
2827,791,761,871,739,0,4304,-16164,-96,-1202,-187,-100
2830,788,764,876,738,0,4312,-16324,-116,-1249,-259,-75
2833,784,767,875,738,0,4496,-16336,-212,-1226,-333,-27
2836,784,769,880,733,0,4504,-16224,-40,-1261,-156,-67
2839,799,770,875,737,0,4312,-16296,-288,-1202,-146,-42
2842,782,774,876,743,0,4316,-16296,-56,-1140,72,-38
2845,782,768,875,748,0,4240,-16280,-140,-1160,21,-80
2848,778,773,875,737,0,4216,-16388,-76,-1125,23,-68
2851,783,768,891,752,0,4360,-16288,-24,-1095,38,-84
2854,772,767,876,745,0,4216,-16284,52,-1102,52,-93
2857,777,763,877,743,0,4144,-16296,12,-1056,-64,-61
2860,772,759,880,747,0,4224,-16276,-224,-1061,-112,-95
2863,773,752,877,741,0,4204,-16264,-40,-1023,-187,-63
2866,775,754,873,747,0,4216,-16244,-48,-971,-181,-84
2869,776,750,874,751,0,4388,-16184,-24,-957,-158,-81
2872,775,751,873,747,0,4468,-16172,-240,-921,-131,-76
2875,778,746,875,745,0,4436,-16124,-104,-881,-117,-64
2878,781,745,869,751,0,4436,-16308,-312,-864,-186,-47
2881,778,741,869,755,0,4448,-16144,-136,-803,-301,7
2884,780,741,870,747,0,4576,-16144,-208,-859,-110,-28
2887,784,747,871,742,0,4416,-16248,-216,-762,-99,-10
2890,777,742,875,743,0,4420,-16056,-132,-790,-19,2
2893,784,738,871,749,0,4364,-16204,-256,-806,-105,-1
2896,784,739,868,746,0,4460,-16224,-180,-806,35,11
2899,788,741,873,745,0,4396,-16224,-148,-831,119,-14
2902,789,735,868,741,0,4280,-16100,-40,-896,47,-85
2905,786,742,875,747,0,4368,-16244,-212,-910,-33,-74
2908,788,741,870,742,0,4244,-16244,-220,-937,-171,-76
2911,791,737,878,747,0,4248,-16260,-164,-966,-237,-94
2914,801,742,871,750,0,4392,-16136,-44,-990,-163,-82
2917,786,737,876,750,0,4348,-16280,-228,-994,-87,-81
2920,783,745,871,745,0,4232,-16140,-28,-983,-170,-47
2923,789,751,879,742,0,4200,-16140,-284,-990,-260,-47
2926,784,746,870,741,0,4128,-16284,-264,-995,-295,-70
2929,797,747,870,740,0,4264,-16292,-80,-960,-310,-44
2932,795,745,877,740,0,4200,-16152,-108,-995,-406,-57
2935,790,738,869,743,0,4128,-16064,-168,-1022,-441,-90
2938,785,739,877,741,0,4248,-16120,-208,-982,-434,-88
2941,786,738,875,743,0,4264,-16116,-88,-973,-447,-96
2944,787,740,875,741,0,4368,-16056,-188,-961,-467,-74
2947,789,736,877,742,0,4332,-16072,-104,-932,-411,-104
2950,789,735,871,741,0,4208,-15988,-76,-894,-333,-105
2953,790,731,875,738,0,4200,-16180,-116,-833,-334,-76
2956,787,730,865,738,0,4280,-16140,48,-812,-300,-70
2959,789,732,869,743,0,4184,-16176,-132,-800,-293,-82
2962,798,736,867,742,0,4244,-16144,92,-785,-252,-65
2965,795,740,875,737,0,4168,-16180,56,-777,-296,-71
2968,791,745,867,733,0,4076,-16192,-4,-747,-325,-90
2971,799,741,868,742,0,4104,-16156,60,-782,-352,-93
2974,806,742,869,738,0,4040,-16172,-132,-762,-388,-96
2977,799,742,871,741,0,4032,-16088,20,-770,-430,-71
2980,796,745,867,743,0,4204,-16108,64,-758,-431,-99
2983,786,751,868,743,0,4032,-16144,-36,-753,-403,-93
2986,795,743,869,742,0,4072,-16104,76,-730,-372,-103
2989,799,733,866,741,0,4056,-16184,-40,-724,-358,-93
2992,797,742,867,741,0,4056,-16224,-184,-709,-343,-99
2995,802,741,869,747,0,4076,-16144,-112,-691,-371,-88
2998,799,739,867,747,0,4124,-16188,-108,-691,-384,-88
3001,795,739,870,747,0,4092,-16056,-148,-685,-363,-97
3004,791,735,872,749,0,4108,-16156,-200,-664,-358,-95
3007,799,737,874,747,0,3952,-16204,-232,-706,-375,-110
3010,795,730,867,746,0,4152,-16140,-76,-682,-402,-132
3013,797,735,875,745,0,4156,-16204,-60,-726,-245,-147
3016,805,735,872,743,0,4116,-16200,40,-725,-249,-119
3019,797,732,871,745,0,4152,-16264,-140,-729,-265,-142
3022,803,735,869,747,0,4084,-16180,-248,-732,-240,-114
3025,803,735,867,743,0,4072,-16200,8,-774,-300,-146
3028,804,735,869,745,0,4060,-16168,0,-776,-254,-124
3031,805,736,870,749,0,4152,-16184,-48,-841,-210,-139
3034,808,735,869,758,0,4156,-16224,24,-784,-135,-146
3037,795,737,869,742,0,4196,-16084,-20,-830,-177,-138
3040,799,739,867,742,0,4200,-16064,28,-862,-155,-146
3043,805,736,871,743,0,4216,-16104,-120,-881,-161,-155
3046,800,737,867,742,0,4112,-16040,12,-917,-233,-152
3049,805,743,874,752,0,4120,-16120,68,-922,-166,-159
3052,803,735,870,741,0,4060,-16088,-8,-956,-64,-172
3055,797,746,878,743,0,4332,-16064,136,-970,-77,-129
3058,791,743,870,743,0,4032,-16152,-12,-994,-122,-137
3061,793,740,871,739,0,4192,-16064,324,-1042,-184,-142
3064,783,736,869,742,0,4176,-16060,164,-1065,-224,-168
3067,784,741,866,735,0,4152,-16140,140,-1060,-180,-159
3070,793,744,878,742,0,4220,-16088,300,-1089,-191,-167
3073,803,743,872,740,0,4336,-16180,196,-1108,-194,-163
3076,791,746,874,738,0,4280,-16172,96,-1119,-166,-177
3079,797,746,873,743,0,4248,-16212,140,-1114,-284,-135
3082,795,743,867,734,0,4256,-16228,32,-1101,-248,-144
3085,800,749,874,737,0,4256,-16308,140,-1105,-222,-106
3088,791,747,873,742,0,4440,-16280,92,-1095,-127,-120
3091,797,751,870,741,0,4432,-16216,40,-1070,-116,-118
3094,798,752,873,741,0,4372,-16292,72,-1084,-106,-95
3097,798,747,867,738,0,4392,-16324,84,-1043,-96,-93
3100,799,751,875,737,0,4444,-16404,28,-1022,-49,-91
3103,802,743,875,738,0,4448,-16292,-12,-1003,31,-73
3106,802,748,874,735,0,4604,-16248,-160,-1016,116,-92
3109,797,746,875,741,0,4432,-16340,-84,-986,20,-85
3112,794,741,871,735,0,4396,-16412,-136,-947,19,-80
3115,801,748,869,735,0,4388,-16276,-172,-937,11,-58
3118,793,746,873,733,0,4328,-16256,-148,-920,-13,-92
3121,795,744,869,737,0,4428,-16252,-264,-921,-18,-70
3124,795,746,871,737,0,4324,-16152,-316,-927,-42,-79
3127,799,752,878,733,0,4352,-16276,-116,-902,-3,-55
3130,795,745,870,735,0,4388,-16204,-56,-914,21,-72
3133,796,743,872,735,0,4432,-16248,-192,-919,-1,-57
3136,801,746,878,731,0,4440,-16312,-144,-905,8,-39
3139,798,747,873,731,0,4392,-16108,-212,-914,70,-47
3142,801,749,879,731,0,4380,-16240,-124,-922,32,-15
3145,799,742,878,731,0,4444,-16200,-160,-914,67,-35
3148,802,739,877,730,0,4436,-16200,-116,-957,65,-10
3151,800,743,879,732,0,4320,-16140,-188,-955,65,-30
3154,801,736,871,735,0,4284,-16112,-184,-962,52,-26
3157,796,738,879,727,0,4300,-16140,-12,-985,65,1
3160,800,742,874,736,0,4336,-16324,-68,-973,24,-31
3163,799,745,875,731,0,4352,-16116,-100,-983,28,-23
3166,801,741,865,739,0,4272,-16204,-116,-948,21,-41
3169,801,743,871,736,0,4252,-16152,32,-975,18,-28
3172,801,742,877,735,0,4360,-16196,-128,-968,31,-55
3175,799,738,869,737,0,4296,-16208,-64,-1005,36,-34
3178,805,740,875,735,0,4280,-16196,-156,-979,55,-46
3181,802,744,880,734,0,4224,-16248,-292,-993,32,-74
3184,804,739,879,734,0,4236,-16216,-100,-992,45,-61
3187,800,730,878,736,0,4156,-16368,-244,-988,-17,-69
3190,807,737,877,746,0,4320,-16228,-60,-976,30,-83
3193,795,738,872,736,0,4116,-16224,-120,-984,41,-79
3196,790,737,873,745,0,4288,-16292,-112,-969,33,-71
3199,788,727,871,727,0,4172,-16260,-272,-954,26,-53
3202,791,745,875,737,0,4200,-16228,-228,-915,20,-70
3205,793,730,878,735,0,4220,-16228,-136,-920,29,-57
3208,784,725,873,737,0,4172,-16360,-84,-904,21,-64
3211,784,735,877,739,0,4240,-16172,-164,-893,28,-47
3214,789,720,871,737,0,4288,-16176,-276,-903,65,-56
3217,785,731,880,739,0,4196,-16184,-32,-895,51,-53
3220,786,733,880,738,0,4196,-16128,0,-869,3,-57
3223,786,730,875,741,0,4220,-16192,-152,-900,21,-83
3226,781,727,877,736,0,4200,-16140,-208,-899,40,-68
3229,785,735,895,735,0,4132,-16260,-28,-887,-7,-74
3232,789,736,873,734,0,4232,-16124,-240,-897,-29,-77
3235,790,730,875,737,0,4264,-16128,-36,-891,-27,-61
3238,787,730,875,741,0,4352,-16124,-136,-883,-42,-67
3241,803,734,878,735,0,4248,-16124,-16,-838,2,-58
3244,787,734,875,736,0,4148,-16112,-16,-847,-10,-90
3247,789,731,872,737,0,4096,-16024,-48,-822,-38,-75
3250,794,737,875,735,0,4044,-16132,-132,-858,-35,-80
3253,794,738,871,737,0,4008,-16116,-164,-837,-55,-85
3256,792,737,877,729,0,4040,-16140,-224,-846,-71,-81
3259,789,732,869,734,0,4172,-16100,-68,-838,-75,-68
3262,791,730,871,731,0,4204,-16024,-68,-826,-48,-63
3265,795,731,879,733,0,4180,-16144,-64,-833,-59,-71
3268,796,735,875,736,0,4252,-16076,-164,-812,-104,-68
3271,791,731,877,730,0,4236,-16116,-100,-819,-84,-53
3274,799,729,878,735,0,4124,-16144,-64,-828,-74,-67
3277,791,721,874,734,0,4132,-16156,-228,-862,-71,-44
3280,795,733,873,730,0,4252,-16156,-88,-855,-78,-53
3283,795,732,873,735,0,4200,-16140,-184,-843,-77,-33
3286,794,737,877,736,0,4276,-16160,-128,-857,-87,-56
3289,796,737,870,737,0,4272,-16064,-28,-835,-129,-40
3292,799,739,876,741,0,4224,-16088,84,-844,-130,-61
3295,791,740,875,738,0,4316,-16088,-160,-823,-152,-79
3298,791,737,875,736,0,4196,-16180,-44,-822,-170,-96
3301,788,737,879,739,0,4128,-16088,-80,-842,-191,-76
3304,794,741,871,735,0,4232,-16148,-120,-859,-165,-93
3307,791,741,874,737,0,4220,-16200,-32,-853,-200,-58
3310,794,739,879,736,0,4264,-16088,-100,-861,-171,-67
3313,792,741,878,730,0,4156,-16204,48,-847,-152,-32
3316,791,739,877,739,0,4208,-16132,-32,-835,-158,-37
3319,787,743,878,737,0,4300,-16084,-128,-836,-148,-20
3322,801,740,877,738,0,4240,-16056,-124,-838,-156,-43
3325,791,745,878,738,0,4260,-16060,-32,-837,-144,-30
3328,794,741,878,741,0,4212,-16064,-100,-863,-127,-17
3331,791,740,880,739,0,4268,-16152,-88,-841,-134,0
3334,791,741,879,737,0,4248,-16180,-64,-871,-142,-34
3337,790,737,880,738,0,4232,-16196,-44,-836,-160,-30
3340,802,740,875,736,0,4188,-16200,8,-853,-142,-31
3343,798,737,875,735,0,4192,-16172,-176,-821,-160,-30
3346,793,734,878,736,0,4280,-16240,44,-840,-164,-38
3349,799,734,873,739,0,4248,-16200,72,-845,-186,-51
3352,795,733,875,737,0,4320,-16224,-168,-826,-159,-83
3355,799,735,875,739,0,4324,-16244,-28,-856,-139,-67
3358,795,734,873,738,0,4244,-16160,88,-841,-98,-61
3361,793,731,875,740,0,4176,-16132,-112,-834,-64,-86
3364,805,736,875,741,0,4224,-16144,124,-842,-21,-54
3367,793,736,877,738,0,4268,-16144,56,-837,-6,-76
3370,791,736,871,738,0,4280,-16172,-76,-814,3,-79
3373,789,734,875,741,0,4248,-16228,-32,-815,35,-46
3376,790,737,870,743,0,4276,-16136,28,-833,4,-61
3379,789,735,874,739,0,4248,-16184,76,-844,-5,-56
3382,789,736,874,737,0,4208,-16112,72,-830,3,-47
3385,789,736,875,738,0,4280,-16072,92,-842,-19,-54
3388,784,735,874,738,0,4264,-16084,116,-850,-14,-38
3391,784,737,877,736,0,4172,-16068,112,-842,-26,-39
3394,784,734,867,737,0,4192,-16140,172,-859,-34,-43
3397,790,743,878,739,0,4304,-16092,-16,-861,-36,-48
3400,787,742,874,739,0,4300,-16008,-28,-858,-36,-34
3403,794,741,874,741,0,4248,-16180,80,-887,-40,-27
3406,789,743,875,741,0,4304,-16124,4,-924,-62,-15
3409,791,743,879,740,0,4316,-16112,116,-918,-31,-45
3412,797,747,878,739,0,4224,-16044,0,-928,-34,-26
3415,795,749,875,737,0,4328,-16068,96,-941,-28,-43
3418,791,748,876,738,0,4352,-16044,60,-946,-31,-29
3421,814,751,878,739,0,4404,-16056,64,-965,-22,-40
3424,796,751,873,737,0,4296,-16136,-128,-949,-15,-41
3427,795,747,871,743,0,4268,-16068,12,-963,-38,-78
3430,798,750,871,741,0,4324,-16080,-56,-979,-28,-70
3433,791,743,874,743,0,4352,-16116,44,-985,-24,-56
3436,788,743,868,745,0,4324,-16072,-32,-950,-29,-79
3439,799,749,874,741,0,4224,-16112,-40,-974,-38,-67
3442,796,750,877,742,0,4304,-16060,-44,-966,-39,-77
3445,793,750,866,737,0,4360,-16088,-24,-941,-27,-78
3448,791,750,869,738,0,4316,-16160,-60,-963,-20,-77
3451,795,750,879,737,0,4136,-16160,-148,-971,-39,-55
3454,792,750,874,731,0,4204,-16112,-64,-926,-27,-57
3457,789,752,875,743,0,4304,-16200,-88,-939,-35,-82
3460,787,751,894,735,0,4288,-16244,-40,-936,-14,-65
3463,789,752,879,738,0,4292,-16248,-120,-954,-6,-62
3466,787,752,875,731,0,4300,-16196,-40,-940,-12,-62
3469,795,752,874,739,0,4240,-16228,16,-976,-11,-42
3472,783,751,871,740,0,4308,-16184,-124,-970,-11,-48
3475,785,751,878,739,0,4348,-16276,-120,-947,6,-37
3478,785,751,878,737,0,4284,-16224,68,-965,-3,-31
3481,786,746,875,739,0,4280,-16188,-256,-954,-6,-29
3484,789,742,871,742,0,4320,-16204,-160,-948,19,-19
3487,791,745,876,739,0,4360,-16204,-24,-963,-2,-34
3490,787,741,877,738,0,4408,-16140,72,-962,2,-20
3493,790,742,871,752,0,4304,-16240,-28,-953,-1,-17
3496,787,739,876,749,0,4312,-16248,-64,-941,17,-35
3499,787,738,873,739,0,4388,-16176,-116,-939,18,-41
3502,791,738,877,750,0,4208,-16320,-28,-925,-21,-48
3505,790,739,869,742,0,4152,-16164,-116,-920,10,-45
3508,785,736,878,741,0,4260,-16184,64,-930,-20,-33
3511,797,735,876,741,0,4244,-16188,52,-903,-39,-72
3514,786,735,874,739,0,4216,-16172,-24,-935,-24,-50
3517,794,734,879,742,0,4172,-16180,-24,-900,-21,-57
3520,795,734,875,739,0,4228,-16108,-60,-911,-18,-43
3523,793,735,875,739,0,4128,-16220,-92,-880,-20,-48
3526,790,732,875,741,0,4152,-16160,-84,-883,-11,-28
3529,795,731,877,746,0,4092,-16148,-204,-860,6,-22
3532,791,734,875,739,0,4236,-16132,-136,-847,27,-36
3535,789,733,879,743,0,4188,-16188,-28,-828,24,-28
3538,787,735,876,749,0,4172,-16156,-12,-842,14,-42
3541,791,735,878,737,0,4120,-16104,-160,-832,-6,-28
3544,798,735,873,740,0,4156,-16108,-108,-841,22,-17
3547,794,735,874,739,0,4148,-16116,-24,-844,-2,-8
3550,787,738,875,739,0,4044,-16180,-112,-821,-17,-23
3553,786,734,873,737,0,4236,-16092,-68,-841,14,1
3556,789,738,881,740,0,4104,-16164,-104,-864,17,-28
3559,794,748,873,737,0,4208,-16148,-108,-845,-8,-16
3562,790,743,877,738,0,4152,-16116,-76,-858,-25,-26
3565,792,734,875,737,0,4224,-16156,-108,-870,-35,-38
3568,790,739,874,739,0,4124,-16168,-140,-862,-49,-26
3571,798,738,876,736,0,4184,-16124,-232,-883,-60,-26
3574,795,740,880,735,0,4200,-16156,-24,-901,-81,-43
3577,791,739,876,739,0,4188,-16140,-4,-917,-88,-49
3580,795,723,873,743,0,4220,-16092,-96,-925,-106,-52
3583,790,738,875,736,0,4232,-16112,32,-909,-128,-54
3586,794,737,880,735,0,4116,-16180,-48,-929,-117,-64
3589,797,737,878,738,0,4164,-16184,-100,-913,-118,-67
3592,798,737,877,735,0,4196,-16232,-124,-923,-109,-52
3595,800,735,877,735,0,4192,-16196,-4,-889,-81,-49
3598,797,738,873,737,0,4180,-16176,-88,-887,-98,-76
3601,802,742,877,745,0,4220,-16096,-148,-878,-91,-53
3604,801,738,877,742,0,4188,-16124,-128,-874,-99,-48
3607,795,739,873,736,0,4088,-16192,-40,-905,-85,-65
3610,790,743,874,736,0,4196,-16188,8,-888,-93,-57
3613,795,740,875,737,0,4156,-16180,0,-896,-92,-67
3616,795,732,875,736,0,4232,-16248,-120,-896,-100,-63
3619,797,752,879,737,0,4252,-16284,-24,-887,-86,-69
3622,790,736,880,741,0,4060,-16308,-96,-904,-62,-41
3625,795,737,874,737,0,4228,-16112,36,-910,-52,-50
3628,789,740,876,737,0,4264,-16140,108,-893,-36,-57
3631,791,740,875,742,0,4248,-16268,-12,-897,-33,-58
3634,789,740,871,737,0,4096,-16308,-8,-895,-32,-43
3637,796,743,871,742,0,4216,-16104,-32,-917,-22,-19
3640,792,741,870,739,0,4236,-16072,-60,-894,-11,-28
3643,797,730,869,738,0,4060,-16120,-96,-926,-9,-47
3646,790,738,879,741,0,4224,-16188,44,-930,8,-31
3649,793,736,875,738,0,4260,-16116,8,-928,-28,-35
3652,790,741,873,736,0,4216,-16176,-64,-918,-34,-49
3655,789,741,880,741,0,4212,-16112,-36,-922,-23,-34
3658,792,734,874,737,0,4288,-16200,-24,-927,-25,-60
3661,790,737,879,742,0,4324,-16128,-60,-919,-33,-81
3664,793,735,875,746,0,4296,-16164,-8,-928,-26,-84
3667,790,751,867,735,0,4332,-16204,-152,-921,-41,-59
3670,794,743,869,737,0,4288,-16260,-100,-899,-30,-86
3673,791,737,873,738,0,4256,-16196,40,-910,-35,-61
3676,791,738,877,740,0,4092,-16252,-24,-914,-25,-77
3679,795,742,875,738,0,4308,-16200,-132,-905,-31,-67
3682,794,742,877,747,0,4296,-16244,-192,-900,-12,-80
3685,793,729,878,741,0,4276,-16196,-148,-933,-20,-87
3688,791,730,878,740,0,4272,-16084,-132,-909,-36,-80
3691,789,738,874,737,0,4332,-16248,-36,-925,0,-77
3694,790,741,876,738,0,4336,-16252,-128,-915,-14,-77
3697,790,733,871,738,0,4304,-16212,-20,-908,7,-80
3700,790,735,874,739,0,4276,-16164,-140,-898,7,-64
3703,791,741,871,741,0,4208,-16120,36,-928,44,-85
3706,790,737,874,739,0,4292,-16116,-176,-916,21,-47
3709,790,742,871,736,0,4308,-16196,-76,-918,52,-72
3712,789,740,875,737,0,4300,-16160,88,-911,21,-31
3715,780,738,877,736,0,4260,-16120,-12,-914,26,-71
3718,786,736,875,736,0,4344,-16088,-116,-903,53,-49
3721,787,737,873,737,0,4340,-16152,88,-929,45,-47
3724,788,734,879,739,0,4300,-16100,200,-940,40,-59
3727,781,735,879,738,0,4400,-16240,-24,-926,51,-39
3730,789,741,871,738,0,4280,-16188,84,-925,42,-34
3733,794,741,878,740,0,4296,-16176,48,-960,45,-44
3736,786,737,878,740,0,4272,-16260,132,-967,35,-23
3739,795,739,873,739,0,4344,-16132,76,-957,42,-22
3742,797,736,876,741,0,4248,-16136,120,-960,36,-28
3745,790,742,875,736,0,4300,-16160,-48,-923,74,-28
3748,795,739,875,745,0,4324,-16140,20,-921,41,-24
3751,794,738,877,739,0,4220,-16088,48,-890,47,-18
3754,797,742,865,738,0,4192,-16152,-188,-906,41,-16
3757,795,742,877,752,0,4272,-16128,108,-905,31,-28
3760,799,743,876,738,0,4224,-16136,0,-876,28,-7
3763,793,742,877,742,0,4200,-16216,-64,-879,35,-14
3766,788,737,880,736,0,4308,-16212,-76,-873,23,-9
3769,794,738,877,739,0,4316,-16260,-40,-871,25,-8
3772,789,741,880,739,0,4264,-16216,104,-864,28,-29
3775,789,738,877,741,0,4272,-16136,28,-875,48,7
3778,795,736,873,743,0,4332,-16212,-96,-866,49,-4
3781,787,739,875,741,0,4252,-16188,-112,-871,52,3
3784,789,752,876,739,0,4224,-16136,76,-865,40,-26
3787,791,742,873,742,0,4244,-16148,128,-881,42,-12
3790,787,746,879,739,0,4164,-16244,24,-884,33,-7
3793,791,741,871,737,0,4268,-16160,-132,-901,17,-19
3796,790,737,879,739,0,4224,-16152,20,-919,34,-14
3799,787,741,878,742,0,4208,-16216,56,-933,39,-19
3802,791,740,868,738,0,4296,-16180,-72,-918,27,-2
3805,790,742,869,739,0,4128,-16136,52,-946,27,-22
3808,791,743,878,740,0,4148,-16132,-20,-903,48,-5
3811,785,736,870,735,0,4260,-16196,-68,-936,44,-22
3814,786,738,867,736,0,4072,-16048,-28,-962,38,-29
3817,785,737,871,740,0,4192,-16112,-12,-930,33,-27
3820,789,741,876,739,0,4220,-15996,4,-957,2,-15
3823,792,739,874,743,0,4236,-16072,80,-974,12,-18
3826,796,737,873,739,0,4184,-16040,-28,-971,-8,-39
3829,797,735,879,751,0,4116,-16072,144,-939,9,-29
3832,793,736,875,742,0,4192,-16156,32,-973,28,-50
3835,791,737,873,739,0,4108,-16032,-52,-951,-25,-23
3838,794,741,879,741,0,4168,-16116,-40,-973,19,-72
3841,791,736,872,737,0,4212,-15988,20,-942,-19,-28
3844,790,735,873,738,0,4220,-16056,80,-993,13,-66
3847,791,740,875,740,0,4216,-16088,16,-971,8,-50
3850,799,738,874,743,0,4148,-16232,-68,-968,-1,-68
3853,791,742,876,737,0,4144,-16164,-116,-961,-8,-57
3856,791,741,880,735,0,4132,-16212,-32,-968,13,-56
3859,794,746,877,738,0,4144,-16160,8,-984,-16,-66
3862,793,739,876,735,0,4124,-16200,-180,-985,-1,-91
3865,803,738,875,737,0,4192,-16136,-104,-990,3,-71
3868,791,738,880,737,0,4092,-16136,-144,-1017,-9,-54
3871,793,742,877,738,0,4176,-16224,0,-1015,-27,-77
3874,798,738,878,739,0,4136,-16296,64,-1050,-19,-67
3877,790,738,871,738,0,4240,-16176,164,-1063,-23,-79
3880,793,742,875,738,0,4144,-16108,28,-1066,-23,-89
3883,790,739,871,738,0,4116,-16140,20,-1076,-31,-75
3886,797,748,879,739,0,4220,-16076,-80,-1071,-18,-80
3889,795,740,875,738,0,4224,-16080,44,-1086,-16,-93
3892,787,739,897,737,0,4220,-16052,20,-1073,-42,-76
3895,789,743,876,747,0,4156,-16156,-116,-1084,-6,-72
3898,789,746,880,737,0,4192,-16112,-36,-1083,-30,-61
3901,795,743,873,738,0,4208,-16172,68,-1057,-6,-87
3904,789,743,880,739,0,4164,-16148,112,-1045,8,-76
3907,793,743,878,745,0,4152,-16136,-68,-1016,9,-61
3910,794,743,877,743,0,4176,-16184,-48,-1017,3,-68
3913,788,742,873,737,0,4056,-16228,-96,-1006,8,-56
3916,793,743,877,739,0,4168,-16244,28,-1021,0,-101
3919,795,745,880,737,0,4272,-16208,-172,-995,-7,-99
3922,793,747,879,738,0,4240,-16264,-56,-1021,33,-86
3925,791,749,871,739,0,4268,-16276,-24,-1006,21,-76
3928,795,747,877,743,0,4256,-16184,-200,-1014,26,-103
3931,787,745,880,738,0,4232,-16292,-92,-1039,25,-101
3934,786,742,874,737,0,4264,-16316,-112,-1004,30,-72
3937,791,739,879,734,0,4220,-16328,-44,-1032,20,-126
3940,784,736,873,735,0,4280,-16248,-72,-1022,8,-88
3943,788,738,874,747,0,4308,-16244,-176,-1057,49,-103
3946,791,739,874,738,0,4272,-16224,-108,-1041,44,-103
3949,789,737,870,738,0,4300,-16248,-196,-1009,52,-69
3952,784,738,879,737,0,4288,-16156,-160,-1022,48,-94
3955,793,741,872,737,0,4260,-16156,-52,-1005,77,-67
3958,789,735,874,738,0,4188,-16180,-184,-997,80,-84
3961,790,735,871,739,0,4180,-16260,-32,-966,82,-91
3964,791,741,877,741,0,4264,-16188,-236,-956,98,-82
3967,788,735,875,734,0,4320,-16088,-128,-946,83,-73
3970,786,737,877,741,0,4316,-16256,-140,-929,93,-68
3973,786,736,871,741,0,4236,-16208,-184,-900,120,-68
3976,792,739,875,738,0,4260,-16160,4,-881,142,-54
3979,789,738,876,739,0,4256,-16144,-80,-908,110,-46
3982,807,741,871,751,0,4296,-16048,24,-878,142,-49
3985,791,740,880,737,0,4252,-16120,-244,-878,126,-49
3988,792,741,879,738,0,4292,-16120,-44,-871,119,-36
3991,791,738,876,733,0,4316,-16168,-48,-863,134,-35
3994,794,752,881,735,0,4220,-16116,-180,-863,122,-35
3997,796,738,880,739,0,4256,-16128,-128,-862,148,-45
4000,789,748,878,739,0,4316,-16200,0,-861,132,-39
4003,786,748,877,741,0,4288,-16152,-160,-857,119,-21
4006,794,747,878,738,0,4356,-16172,-144,-860,92,-36
4009,785,743,876,736,0,4200,-16040,-200,-877,105,-45
4012,800,745,877,734,0,4296,-16108,-284,-871,78,-60
4015,793,738,874,745,0,4424,-16140,-52,-866,120,-58
4018,790,746,874,747,0,4324,-16176,-104,-865,55,-60
4021,787,751,880,735,0,4292,-16160,-100,-899,3,-57
4024,794,742,878,746,0,4360,-16256,-64,-893,9,-60
4027,787,741,873,737,0,4280,-16180,20,-906,14,-75
4030,784,743,871,751,0,4400,-16144,-44,-913,79,-35
4033,788,741,880,737,0,4396,-16184,-36,-927,63,-67
4036,790,739,878,743,0,4244,-16220,-80,-932,63,-45
4039,788,738,879,740,0,4280,-16152,-84,-924,29,-60
4042,789,742,871,739,0,4392,-16204,-4,-916,37,-39
4045,793,740,879,745,0,4228,-16236,52,-919,46,-57
4048,791,738,871,738,0,4276,-16152,-8,-904,32,-30
4051,794,741,873,737,0,4292,-16192,172,-904,7,-37
4054,788,741,875,747,0,4276,-16160,68,-892,-6,-27
4057,787,735,881,743,0,4272,-16200,-60,-882,-109,-15
4060,790,737,871,748,0,4308,-16160,-44,-891,-47,-18
4063,790,736,893,743,0,4304,-16144,28,-879,34,-31
4066,788,735,878,750,0,4316,-16144,-8,-886,11,-7
4069,791,738,877,743,0,4340,-16148,-160,-885,3,-19
4072,791,733,877,743,0,4256,-16172,-8,-890,17,-20
4075,791,734,871,743,0,4276,-16168,-4,-877,4,-5
4078,794,738,876,745,0,4332,-16156,24,-897,73,-9
4081,790,737,875,745,0,4168,-16160,64,-911,33,3
4084,793,734,877,742,0,4156,-16204,-104,-892,40,-24
4087,789,739,875,743,0,4240,-16152,-64,-908,11,1
4090,791,737,871,743,0,4280,-16148,-12,-908,11,-21
4093,794,733,881,742,0,4240,-16084,-88,-932,-13,-1
4096,791,731,873,741,0,4212,-16124,-4,-953,-54,-18
4099,786,735,878,743,0,4204,-16260,-116,-955,-56,-15
4102,784,735,873,747,0,4148,-16156,-76,-926,-73,1
4105,790,737,875,747,0,4072,-16148,-60,-969,-105,-28
4108,795,737,878,746,0,4116,-16124,36,-966,-131,-6
4111,789,736,870,742,0,4252,-16108,-28,-972,-83,-40
4114,795,737,870,741,0,4140,-16144,-92,-967,-82,-21
4117,797,739,873,740,0,4172,-16116,-52,-956,-50,-35
4120,795,741,874,733,0,4148,-16060,-84,-985,-48,-27
4123,794,738,869,739,0,4120,-16136,52,-946,-93,-36
4126,792,741,871,746,0,4004,-16180,-20,-995,-104,-55
4129,793,739,877,740,0,4152,-16032,-80,-983,-81,-49
4132,790,741,880,735,0,4184,-16108,-100,-973,-71,-73
4135,791,749,878,741,0,4168,-16164,-168,-963,-89,-49
4138,787,746,874,741,0,4160,-16064,48,-980,-91,-61
4141,790,748,867,742,0,4116,-16060,92,-977,-67,-51
4144,795,751,879,738,0,4224,-16084,-116,-980,-36,-55
4147,798,749,873,742,0,4252,-16108,-64,-979,-24,-64
4150,785,751,872,738,0,4192,-16148,-8,-993,-18,-56
4153,791,752,876,737,0,4256,-16124,-92,-996,-13,-56
4156,795,752,877,738,0,4056,-16156,-148,-1012,-9,-60
4159,793,752,880,740,0,4216,-16172,-84,-978,-27,-44
4162,796,751,878,737,0,4176,-16144,-12,-1012,-33,-81
4165,788,749,871,742,0,4108,-16144,16,-961,-55,-73
4168,789,748,875,736,0,4216,-16324,36,-984,-63,-81
4171,797,746,875,739,0,4180,-16136,-96,-969,-73,-104
4174,791,742,869,739,0,4124,-16148,-40,-971,-94,-87
4177,794,743,871,739,0,4180,-16096,-96,-968,-70,-84
4180,793,750,879,734,0,4208,-16212,-132,-953,-80,-75
4183,794,746,878,743,0,4332,-16076,-48,-958,-69,-94
4186,796,751,877,739,0,4184,-16088,-44,-966,-67,-87
4189,791,750,878,737,0,4208,-16212,-16,-985,-87,-101
4192,789,745,873,739,0,4304,-16116,-116,-993,-79,-91
4195,795,747,879,739,0,4308,-16184,-20,-996,-33,-91
4198,797,747,875,738,0,4188,-16056,4,-979,-54,-78
4201,795,749,877,739,0,4228,-16156,8,-997,-44,-85
4204,794,752,875,750,0,4228,-16276,-124,-1011,-35,-81
4207,799,750,877,739,0,4184,-16216,0,-1008,-14,-78
4210,784,746,875,741,0,4208,-16176,-68,-999,-34,-82
4213,794,749,877,735,0,4200,-16116,-120,-1008,3,-47
4216,793,746,877,735,0,4224,-16132,-68,-998,13,-80
4219,793,748,873,741,0,4240,-16236,-72,-1008,-15,-51
4222,786,751,880,738,0,4184,-16172,-28,-988,-24,-64
4225,789,740,871,739,0,4220,-16072,-24,-1010,-11,-76
4228,790,745,869,737,0,4276,-16160,88,-988,-23,-49
4231,794,739,871,745,0,4228,-16144,-48,-1003,-22,-70
4234,789,745,874,746,0,4268,-16168,52,-1001,-40,-65
4237,794,742,871,742,0,4188,-16064,72,-990,-64,-58
4240,789,746,878,741,0,4340,-16072,-128,-978,-46,-93
4243,797,742,875,738,0,4308,-16080,-112,-974,-26,-81
4246,795,742,877,739,0,4300,-16084,12,-948,-48,-86
4249,795,747,874,740,0,4252,-16124,-148,-978,-38,-89
4252,791,742,873,739,0,4280,-16152,-24,-959,-45,-104
4255,790,744,879,738,0,4276,-16056,-28,-971,-35,-94
4258,796,748,879,741,0,4316,-15964,-116,-959,-28,-102
4261,791,743,875,742,0,4276,-16136,-132,-981,-31,-110
4264,794,747,878,737,0,4260,-16112,24,-980,1,-103
4267,797,750,878,738,0,4348,-16096,-196,-980,-13,-89
4270,793,747,874,739,0,4244,-16184,-60,-985,-6,-84
4273,795,751,879,738,0,4276,-16180,-100,-994,-37,-102
4276,797,749,875,733,0,4336,-16176,-212,-1006,-1,-110
4279,793,752,875,739,0,4220,-16092,-28,-1014,-30,-96
4282,801,743,875,739,0,4256,-16260,-172,-1017,-35,-91
4285,795,746,879,739,0,4328,-16180,-88,-1028,-49,-119
4288,793,747,877,740,0,4244,-16156,-80,-1030,-25,-93
4291,789,747,874,739,0,4216,-16264,40,-1029,-37,-106
4294,802,743,877,738,0,4380,-16308,-128,-1003,-31,-93
4297,797,746,878,738,0,4292,-16224,-156,-1015,-33,-112
4300,787,744,880,740,0,4228,-16188,-128,-995,-48,-71
4303,789,741,874,735,0,4316,-16124,-80,-983,-28,-73
4306,789,737,875,734,0,4328,-16236,-8,-1004,-24,-83
4309,794,738,871,743,0,4368,-16188,-96,-971,-17,-85
4312,793,743,875,752,0,4316,-16236,-76,-959,-6,-70
4315,788,747,878,735,0,4356,-16284,76,-953,-26,-62
4318,794,749,870,738,0,4320,-16180,-80,-935,-39,-54
4321,789,741,871,737,0,4344,-16208,16,-960,5,-74
4324,787,739,874,733,0,4352,-16200,20,-932,-3,-69
4327,794,737,877,738,0,4296,-16072,-76,-965,10,-54
4330,791,740,875,739,0,4324,-16152,-84,-910,-27,-62
4333,795,735,876,743,0,4392,-16188,-108,-927,-43,-71
4336,793,742,880,738,0,4208,-16064,-8,-921,-3,-75
4339,797,739,880,739,0,4240,-16212,-204,-904,-17,-53
4342,790,745,880,741,0,4216,-16168,28,-898,-12,-63
4345,789,743,875,737,0,4308,-16192,-168,-905,-37,-63
4348,786,738,878,737,0,4220,-16244,-204,-905,-46,-70
4351,787,741,873,736,0,4352,-16252,-232,-898,-22,-58
4354,789,747,879,738,0,4392,-16172,-260,-904,-57,-64
4357,790,742,874,739,0,4324,-16184,-136,-888,-19,-51
4360,784,746,879,742,0,4332,-16260,-20,-898,-38,-83
4363,784,741,871,740,0,4300,-16248,-96,-905,-31,-40
4366,782,727,878,738,0,4264,-16272,-76,-877,-26,-45
4369,783,741,880,757,0,4248,-16152,-44,-934,-28,-54
4372,784,740,877,743,0,4316,-16116,-168,-930,-32,-9
4375,781,726,881,739,0,4328,-16152,-236,-932,-29,-33
4378,780,746,879,741,0,4308,-16044,32,-914,-22,-38
4381,784,742,877,739,0,4280,-16120,-80,-944,-15,-36
4384,784,738,875,734,0,4288,-16072,-8,-926,2,-14
4387,785,742,875,726,0,4288,-16136,124,-935,3,-20
4390,784,742,879,739,0,4340,-16092,-56,-942,-9,-22
4393,784,742,876,745,0,4220,-16036,-12,-938,-11,-40
4396,787,739,877,737,0,4352,-15984,80,-951,-38,-26
4399,784,741,876,733,0,4352,-16176,-52,-960,-3,-37
4402,787,743,874,741,0,4188,-16172,-60,-948,-18,-45
4405,785,742,879,737,0,4256,-16144,-76,-940,-8,-58
4408,784,747,871,733,0,4184,-16140,-80,-949,-22,-23
4411,791,748,880,737,0,4200,-16072,-92,-937,-32,-60
4414,783,747,875,737,0,4268,-16272,-16,-916,-42,-77
4417,784,752,880,736,0,4256,-16208,-148,-927,-39,-56
4420,784,752,879,742,0,4236,-16152,-24,-903,15,-46
4423,784,746,878,739,0,4348,-16120,-44,-898,-40,-60
4426,789,744,877,734,0,4312,-16108,48,-893,-2,-54
4429,786,743,875,741,0,4224,-16204,60,-913,-36,-49
4432,784,738,880,738,0,4252,-16172,28,-909,-21,-74
4435,785,738,873,732,0,4292,-16240,-92,-907,-7,-33
4438,789,738,880,738,0,4316,-16128,-124,-914,22,-52
4441,787,740,880,738,0,4252,-16100,-36,-925,31,-40
4444,784,729,875,739,0,4220,-16180,4,-920,32,-24
4447,784,741,874,739,0,4300,-16124,-84,-928,33,-27
4450,786,743,880,740,0,4304,-16168,-68,-925,34,-20
4453,785,747,873,746,0,4284,-16188,-80,-912,40,-19
4456,783,740,877,740,0,4176,-16192,-132,-900,-21,-30
4459,785,742,879,738,0,4132,-16152,-92,-925,-16,-42
4462,789,741,867,739,0,4340,-16168,-124,-909,-43,-44
4465,790,741,877,738,0,4172,-16272,132,-926,-5,-38
4468,789,741,870,742,0,4308,-16156,16,-912,25,-74
4471,790,738,874,738,0,4168,-16272,-136,-900,-9,-66
4474,794,736,878,741,0,4244,-16172,-52,-914,-31,-64
4477,784,736,879,741,0,4252,-16212,-20,-896,-42,-83
4480,789,739,879,737,0,4252,-16148,20,-915,-23,-63
4483,790,735,880,736,0,4192,-16180,52,-917,29,-85
4486,787,738,871,739,0,4184,-16184,-60,-904,-15,-52
4489,786,735,877,737,0,4140,-16120,72,-921,-14,-60
4492,791,739,877,737,0,4220,-16124,92,-916,-9,-56
4495,793,736,877,735,0,4296,-16096,-28,-894,-38,-40
4498,785,737,879,739,0,4172,-16056,64,-897,-60,-30
4501,791,738,875,739,0,4116,-16092,80,-908,-75,-14
4504,789,738,867,739,0,4248,-16120,-40,-925,-64,-10
4507,795,735,874,741,0,4216,-16116,-92,-905,-16,-30
4510,791,736,871,741,0,4272,-15924,12,-939,-26,-42
4513,791,745,876,743,0,4268,-16012,120,-924,-50,-53
4516,794,741,877,736,0,4160,-16044,24,-932,-10,-50
4519,795,737,874,730,0,4232,-16024,36,-944,-48,-82
4522,799,741,875,740,0,4240,-16080,152,-933,-70,-77
4525,790,742,879,740,0,4340,-16080,36,-968,-50,-71
4528,800,745,879,738,0,4120,-16052,-60,-956,-6,-83
4531,799,743,879,738,0,4200,-16152,56,-946,-24,-70
4534,802,746,882,736,0,4264,-16108,-20,-953,-10,-76
4537,797,747,881,732,0,4116,-16172,-40,-962,-105,-96
4540,800,750,875,737,0,4228,-16108,160,-987,-33,-85
4543,802,750,870,734,0,4292,-16116,56,-1024,-76,-62
4546,799,751,878,734,0,4168,-16140,-36,-1012,-69,-67
4549,793,753,878,734,0,4192,-16236,-64,-1052,-99,-94
4552,795,749,879,734,0,4120,-16024,-112,-1065,-142,-59
4555,799,752,878,734,0,4376,-16168,-12,-1102,12,-132
4558,803,750,880,733,0,4252,-16180,24,-1156,-57,-109
4561,790,743,877,736,0,4256,-16180,-148,-1149,-138,-124
4564,788,743,875,732,0,4280,-16160,-24,-1178,-129,-99
4567,785,739,873,736,0,4296,-16320,88,-1217,-135,-105
4570,791,745,875,739,0,4256,-16260,48,-1250,-100,-108
4573,788,741,869,739,0,4252,-16252,36,-1251,-153,-94
4576,787,739,870,736,0,4144,-16232,152,-1291,-166,-98
4579,784,740,873,740,0,4300,-16140,184,-1303,-186,-99
4582,791,743,878,743,0,4216,-16096,188,-1282,-139,-109
4585,787,745,875,742,0,4412,-16064,288,-1292,-154,-104
4588,784,739,877,741,0,4256,-15988,88,-1301,-210,-110
4591,784,740,878,745,0,4348,-16048,20,-1294,-295,-115
4594,787,745,875,739,0,4192,-15980,-32,-1253,-266,-126
4597,791,752,878,742,0,4460,-15968,36,-1301,-127,-160
4600,795,751,873,741,0,4388,-16020,-96,-1296,-159,-162
4603,798,747,871,735,0,4384,-16056,-28,-1305,-268,-172
4606,801,749,872,737,0,4280,-16056,-168,-1238,-354,-167
4609,803,743,874,735,0,4228,-16104,-32,-1239,-374,-134
4612,798,746,874,737,0,4324,-16100,40,-1212,-335,-130
4615,793,737,878,737,0,4332,-16116,-108,-1275,-179,-166
4618,791,736,875,737,0,4268,-16124,-124,-1261,-99,-127
4621,791,722,874,740,0,4280,-16272,-168,-1288,-204,-123
4624,777,724,872,738,0,4296,-16420,-288,-1312,-298,-104
4627,787,722,873,739,0,4376,-16368,-24,-1190,-780,82
4630,786,722,877,738,0,4708,-16304,-464,-1303,-605,-6
4633,784,721,875,741,0,4384,-16232,-304,-1372,-722,-42
4636,790,720,871,746,0,4524,-16036,84,-1319,-294,-80
4639,791,720,871,742,0,4236,-16068,-280,-1317,-639,-42
4642,791,712,879,752,0,4100,-16048,-284,-1375,-1039,-89
4645,786,720,876,747,0,4196,-16144,92,-1443,-1105,-74
4648,784,722,877,747,0,4536,-16052,-64,-1462,-1134,-147
4651,784,717,870,747,0,4568,-16208,48,-1455,-694,-159
4654,779,725,874,751,0,4404,-16080,124,-1510,-735,-170
4657,784,720,878,745,0,4432,-16068,-20,-1332,-503,-50
4660,779,720,873,746,0,4456,-16040,64,-1546,-342,-306
4663,787,718,870,751,0,4272,-16064,-240,-1649,-711,-413
4666,787,721,878,755,0,4324,-16208,-136,-1594,-890,-447
4669,792,739,874,752,0,4416,-16184,-356,-1611,-1025,-518
4672,794,723,878,751,0,4324,-16056,-132,-1729,-886,-591
4675,799,723,879,746,0,4468,-16148,-224,-1595,-753,-575
4678,793,722,875,732,0,4480,-16156,-180,-1579,-591,-628
4681,801,721,873,741,0,4416,-16136,-216,-1468,-440,-575
4684,800,723,875,743,0,4396,-16140,-24,-1546,-484,-622
4687,806,727,891,746,0,4308,-16336,-196,-1555,-515,-631
4690,799,730,875,749,0,4288,-16248,-204,-1514,-514,-643
4693,798,729,877,749,0,4240,-16168,-148,-1556,-611,-670
4696,801,734,880,747,0,4264,-16280,-144,-1480,-465,-619
4699,799,733,871,751,0,4288,-16268,-220,-1490,-581,-564
4702,803,743,877,752,0,4248,-16308,-112,-1448,-460,-571
4705,800,732,873,741,0,4212,-16416,-300,-1422,-363,-560
4708,785,723,878,745,0,4160,-16340,-68,-1408,-469,-533
4711,785,726,870,746,0,4200,-16348,28,-1491,-576,-525
4714,793,727,880,751,0,4228,-16456,-164,-1524,-687,-575
4717,791,720,877,754,0,4220,-16460,-176,-1540,-757,-590
4720,803,727,869,753,0,4340,-16468,-184,-1599,-835,-575
4723,791,737,878,756,0,4316,-16316,-164,-1638,-904,-600
4726,794,741,871,752,0,4324,-16288,-36,-1678,-921,-553
4729,793,743,874,745,0,4264,-16388,44,-1726,-922,-561
4732,786,742,874,754,0,4276,-16336,32,-1735,-885,-557
4735,794,752,870,752,0,4404,-16160,-20,-1835,-827,-585
4738,798,747,870,752,0,4288,-16348,-76,-1814,-846,-568
4741,801,739,864,752,0,4324,-16232,144,-1837,-783,-600
4744,798,730,875,751,0,4300,-16316,-124,-1866,-814,-596
4747,799,723,875,752,0,4384,-16352,-64,-1861,-746,-611
4750,795,734,871,749,0,4280,-16260,-164,-1869,-836,-622
4753,789,737,875,750,0,4248,-16212,-76,-1777,-664,-605
4756,785,741,867,752,0,4272,-16300,-212,-1772,-730,-601
4759,786,741,863,749,0,4232,-16336,-272,-1716,-795,-598
4762,792,738,879,751,0,4128,-16292,-156,-1736,-796,-640
4765,790,731,871,750,0,4204,-16244,-260,-1673,-570,-598
4768,790,729,870,752,0,4112,-16280,-280,-1654,-453,-665
4771,785,725,874,749,0,4056,-16176,-372,-1673,-665,-665
4774,794,726,869,750,0,4096,-16248,-276,-1692,-404,-710
4777,790,720,870,752,0,4104,-16052,-316,-1687,-151,-713
4780,793,719,878,751,0,4004,-16028,-164,-1705,-1,-745
4783,800,720,897,752,0,4044,-16140,-328,-1779,-249,-789
4786,815,716,876,751,0,3772,-16040,-324,-1787,-100,-814
4789,804,719,877,746,0,3980,-15980,-308,-1825,-188,-861
4792,806,720,869,737,0,3880,-15936,-132,-1866,-139,-947
4795,810,724,870,739,0,3896,-15776,-320,-1884,-223,-976
4798,810,733,869,742,0,3960,-15712,-256,-1920,13,-1055
4801,809,735,874,730,0,3940,-15888,-560,-1956,-38,-1123
4804,811,736,873,738,0,3932,-15872,-196,-2006,-55,-1182
4807,817,742,880,736,0,3800,-15712,-332,-2020,-160,-1275
4810,811,743,874,737,0,3736,-15904,-268,-2049,-353,-1317
4813,810,739,874,730,0,3800,-15836,-324,-2034,-424,-1323
4816,816,740,875,731,0,3940,-15772,-260,-2073,-321,-1381
4819,813,737,871,730,0,3840,-15852,-228,-2074,-390,-1385
4822,814,741,873,732,0,3960,-15912,-344,-2119,-256,-1413
4825,811,738,870,736,0,3852,-16012,-172,-2061,-136,-1412
4828,816,730,876,729,0,4152,-15840,-452,-2129,-115,-1375
4831,810,733,876,729,0,3912,-16080,-404,-2118,-248,-1333
4834,816,725,870,731,0,4004,-16112,-112,-2166,-381,-1303
4837,818,719,879,730,0,4088,-16048,-492,-2163,-194,-1282
4840,818,719,879,731,0,4060,-16056,-300,-2269,-506,-1303
4843,823,717,877,732,0,3876,-15984,-400,-2341,-615,-1327
4846,820,718,880,739,0,4192,-16112,-192,-2317,-161,-1324
4849,814,716,877,738,0,4432,-16144,96,-2347,57,-1264
4852,813,714,879,720,0,3976,-16120,-312,-2385,-211,-1261
4855,810,707,880,743,0,4040,-16136,-84,-2366,-341,-1225
4858,811,711,874,751,0,4164,-16300,-228,-2362,-298,-1221
4861,801,707,862,737,0,4244,-15908,112,-2445,-120,-1241
4864,807,711,874,751,0,3900,-16272,-100,-2518,-367,-1330
4867,813,725,874,746,0,4112,-16312,-72,-2510,-384,-1342
4870,800,731,877,747,0,4172,-15928,-4,-2660,-191,-1442
4873,807,743,863,747,0,4264,-15976,60,-2801,291,-1606
4876,804,747,874,750,0,4240,-16132,156,-2874,722,-1719
4879,803,747,874,740,0,4628,-15716,356,-2988,1207,-1852
4882,801,748,870,725,0,4396,-15744,204,-2998,1679,-1952
4885,807,751,873,722,0,4596,-15900,520,-2897,2533,-2062
4888,809,746,880,722,0,4628,-15436,480,-3059,3235,-2255
4891,815,742,895,725,0,4148,-16096,-120,-3142,2906,-2382
4894,817,735,877,720,0,4168,-16204,-500,-3261,3849,-2744
4897,825,745,883,726,0,4396,-16492,-152,-2955,3449,-2546
4900,835,736,880,726,0,3396,-16744,-512,-2935,1848,-2609
4903,830,734,877,734,0,3436,-16276,-644,-2834,1298,-2672
4906,835,730,871,727,0,3936,-16276,-776,-2748,894,-2677
4909,831,733,879,735,0,3912,-16628,-860,-2703,720,-2754
4912,833,720,874,739,0,4380,-16444,-516,-2752,345,-2668
4915,832,720,875,737,0,4228,-16120,-580,-2859,-480,-2634
4918,832,726,871,739,0,4396,-15932,-252,-2850,-219,-2657
4921,822,730,867,739,0,4864,-16028,-280,-2770,-329,-2554
4924,813,735,874,741,0,4712,-15740,-392,-2864,-196,-2574
4927,809,733,875,739,0,5124,-15732,-396,-2927,-31,-2553
4930,798,727,872,739,0,4972,-16012,-596,-2915,-30,-2442
4933,787,735,875,736,0,5404,-15748,-576,-3004,171,-2498
4936,781,742,879,750,0,5284,-15740,-604,-2970,377,-2433
4939,767,752,867,737,0,5068,-15960,-1104,-3095,176,-2482
4942,766,759,866,736,0,5108,-15924,-1028,-3051,395,-2489
4945,770,769,863,736,0,5084,-16220,-1312,-3084,239,-2491
4948,781,771,870,730,0,4712,-16368,-1384,-2990,-99,-2481
4951,786,777,864,735,0,4836,-16308,-1240,-3022,35,-2493
4954,798,769,867,752,0,5160,-16384,-1128,-3079,828,-2572
4957,811,767,869,737,0,5020,-16612,-1212,-3092,1304,-2684
4960,827,768,879,740,0,4856,-16604,-1444,-3117,1250,-2648
4963,835,769,867,738,0,4580,-16720,-1304,-3114,1289,-2655
4966,837,773,871,719,0,4532,-16796,-1264,-3268,1332,-2773
4969,836,774,864,733,0,4520,-16628,-1144,-3247,1522,-2810
4972,834,778,870,736,0,4528,-16584,-924,-3254,1734,-2792
4975,823,778,866,738,0,4564,-16752,-668,-3205,2053,-2872
4978,827,778,868,739,0,4344,-16816,-1300,-3242,1613,-2921
4981,816,774,866,735,0,4340,-16668,-792,-3145,1465,-2885
4984,803,770,865,740,0,4352,-16708,-1196,-3117,1364,-2987
4987,801,769,872,751,0,4816,-16484,-1112,-3100,1559,-2977
4990,793,769,867,738,0,4700,-16680,-996,-2947,1633,-2927
4993,807,766,867,743,0,4432,-16700,-1136,-2958,1157,-2992
4996,816,757,864,741,0,4484,-16648,-1240,-2819,1298,-3020
4999,815,752,864,739,0,4548,-16540,-1324,-2686,1039,-2983
5002,816,751,867,766,0,4624,-16348,-1328,-2679,1396,-3088
5005,798,752,869,752,0,4708,-16172,-1176,-2620,1841,-3161
5008,798,741,879,741,0,4576,-16236,-1304,-2525,2131,-3262
5011,779,747,886,769,0,4264,-15980,-1508,-2522,1964,-3360
5014,759,749,867,751,0,4152,-15760,-1240,-2497,1596,-3505
5017,743,738,866,752,0,4332,-15948,-1476,-2336,1612,-3550
5020,731,738,876,747,0,4516,-16012,-1144,-2383,1953,-3802
5023,724,737,870,756,0,4564,-16224,-1396,-2173,2032,-3846
5026,715,740,880,752,0,4544,-16032,-1520,-2128,1878,-3895
5029,715,741,872,746,0,4760,-16196,-1752,-2081,1937,-3980
5032,708,735,871,740,0,4856,-15864,-1908,-2131,2198,-4055
5035,719,736,877,739,0,4876,-16176,-1916,-2084,2293,-4192
5038,717,736,869,750,0,4620,-16196,-2092,-2056,1859,-4253
5041,718,736,869,752,0,4668,-16424,-2064,-2093,1508,-4215
5044,720,727,857,741,0,4968,-16148,-2052,-2261,1742,-4291
5047,722,723,858,769,0,5156,-16388,-2068,-2707,1740,-4560
5050,731,720,856,813,0,6868,-16024,-3192,-2997,2343,-4795
5053,738,721,854,768,0,3956,-16312,644,-2583,2506,-4734
5056,759,720,851,753,0,2408,-16824,-3216,-3238,-1721,-4652
5059,775,728,859,765,0,4520,-17204,-1360,-2807,-426,-4613
5062,790,736,859,771,0,5332,-16900,-1520,-2751,-751,-4435
5065,802,749,862,769,0,5084,-16560,-2052,-3014,-1401,-4695
5068,826,767,872,779,0,5352,-16052,-1704,-3204,-736,-4947
5071,833,773,877,777,0,5468,-16592,-2028,-3258,-561,-5127
5074,864,791,890,791,0,5180,-16692,-2252,-2863,-592,-5072
5077,881,803,881,789,0,5408,-16780,-2212,-2569,1,-4943
5080,917,830,879,791,0,5032,-16388,-2080,-2601,67,-5087
5083,949,849,880,798,0,4996,-16968,-2844,-1912,531,-4878
5086,949,880,877,795,0,5404,-16688,-2464,-1719,1043,-4870
5089,937,896,864,791,0,5164,-16660,-2744,-1475,977,-5004
5092,959,911,863,794,0,5076,-16320,-2868,-1184,718,-4957
5095,935,909,848,799,0,5012,-16356,-2832,-934,721,-5008
5098,970,880,847,793,0,4988,-16376,-3084,-1010,633,-5260
5101,975,835,848,784,0,4696,-16116,-2592,-1353,634,-5556
5104,993,821,848,767,0,5092,-16920,-2552,-1261,993,-5688
5107,993,790,849,754,0,5420,-16548,-2496,-740,1437,-5528
5110,999,757,839,741,0,5336,-16308,-1844,-888,1853,-5488
5113,978,746,845,737,0,4872,-16448,-1928,-1542,1083,-5850
5116,957,750,841,737,0,4988,-16420,-1264,-1628,1258,-5909
5119,949,752,842,742,0,4484,-17000,-752,-1552,1801,-6026
5122,934,763,844,749,0,5788,-16572,-1500,-1704,2332,-6122
5125,935,776,847,752,0,4796,-16320,-1772,-1558,2002,-6288
5128,960,790,847,752,0,4696,-16152,-1900,-1550,2049,-6274
5131,988,800,848,753,0,4772,-16256,-2096,-1276,2169,-6514
5134,1049,810,854,752,0,5568,-16948,-2160,-931,2782,-6479
5137,1079,807,863,743,0,5536,-17472,-2576,-685,3407,-6662
5140,1136,805,869,732,0,6136,-17604,-3504,-525,3034,-6478
5143,1124,802,879,723,14,6036,-17416,-3440,-615,2846,-6440
5146,1119,805,880,723,16,4144,-17832,-3532,-638,2016,-6426
5149,1099,809,887,722,33,5780,-17908,-3800,-920,1347,-6426
5152,1059,809,909,720,41,5292,-18036,-2476,-1033,2265,-6817
5155,1013,814,905,720,55,5712,-17744,-3324,-1345,1092,-6667
5158,979,813,927,730,70,5352,-17248,-1416,-1770,1787,-7034
5161,969,806,944,732,70,4932,-17972,-1584,-1896,1335,-6874
5164,961,791,960,739,89,4364,-17208,-1360,-2418,940,-7319
5167,966,761,963,747,83,4856,-17612,-1184,-2203,1377,-7280
5170,965,719,970,751,95,5072,-17520,-1676,-1819,1755,-7328
5173,991,685,976,763,103,4796,-17472,-1876,-1412,1706,-7722
5176,1006,639,981,779,106,4816,-16908,-2800,-1582,1540,-7831
5179,1073,617,999,799,119,6192,-17832,-2560,-1112,1799,-7662
5182,1107,595,1001,811,144,5048,-17664,-2728,-1209,1726,-7669
5185,1125,589,1004,799,147,5516,-17324,-3652,-1403,1581,-7960
5188,1103,586,993,784,144,6152,-17264,-2872,-1263,1619,-8019
5191,1103,604,983,779,135,6448,-17660,-3952,-1733,1119,-8323
5194,1094,639,973,779,150,6340,-17316,-3420,-2096,1483,-8398
5197,1106,690,950,758,146,6148,-16424,-3760,-2563,920,-8262
5200,1117,747,938,745,156,7468,-16060,-2920,-3337,955,-8370
5203,1094,806,925,737,174,6956,-16908,-3168,-3629,1652,-8399
5206,1075,850,922,742,181,6728,-16764,-2388,-3996,1641,-8386
5209,1056,887,918,729,171,7460,-17196,-2436,-3807,1817,-8398
5212,1058,916,926,722,176,7716,-15684,-3416,-3745,1899,-8359
5215,1061,948,918,722,191,7536,-15288,-1988,-3920,2103,-8415
5218,1056,965,906,719,225,6644,-16272,-1904,-3992,2481,-8158
5221,1040,970,892,720,240,7036,-16572,-1968,-4028,2615,-7991
5224,956,960,885,726,244,6184,-16636,-2072,-3766,1932,-7772
5227,889,934,873,728,293,7360,-16684,-2368,-4131,2215,-7449
5230,831,921,863,739,278,7044,-15728,-2444,-4050,2297,-7405
5233,800,909,862,748,303,7420,-15184,-2444,-4114,1715,-7184
5236,784,909,848,746,298,7964,-15972,-2472,-4102,2005,-7171
5239,773,934,855,733,296,8064,-15884,-2548,-4096,1896,-7105
5242,794,919,858,720,299,7188,-15800,-2560,-4063,1759,-7128
5245,807,923,858,720,288,8412,-15840,-2624,-4285,1593,-7239
5248,793,933,854,715,290,8584,-15552,-1680,-4620,1407,-7340
5251,787,958,868,719,272,8400,-15976,-2228,-4301,1541,-7422
5254,794,976,862,720,271,8276,-16112,-1832,-3944,1790,-7465
5257,748,978,849,723,263,9876,-15116,-1440,-4491,2516,-7327
5260,725,995,843,733,270,9036,-15292,-1824,-4164,2658,-7197
5263,711,1006,834,747,253,8200,-15788,-1860,-3607,2194,-7322
5266,685,1007,831,751,256,9028,-15340,-2052,-3889,2678,-7132
5269,656,976,832,753,246,9776,-15268,-2920,-3880,3290,-7227
5272,653,944,833,757,240,9564,-14920,-2636,-3467,3021,-7172
5275,658,900,830,765,245,8320,-15816,-2992,-3415,1857,-7114
5278,661,865,834,767,233,8992,-15584,-3464,-3158,1672,-7063
5281,655,819,833,779,214,9228,-15608,-2496,-3106,1450,-6857
5284,647,782,833,780,217,9848,-14512,-3264,-3321,1942,-6576
5287,661,742,840,791,240,9520,-14692,-2224,-3216,1641,-6684
5290,647,698,846,801,262,9160,-14180,-2204,-3535,1462,-6587
5293,633,653,861,808,319,9348,-14320,-2968,-3356,869,-6473
5296,618,623,877,801,311,9632,-13932,-2404,-3230,647,-6312
5299,621,590,881,817,346,10136,-13956,-2024,-3523,1101,-6075
5302,624,574,890,817,349,10996,-14024,-1808,-3330,1300,-6196
5305,619,573,910,815,340,10180,-14164,-1476,-3692,1240,-6266
5308,593,577,915,816,322,10548,-14168,-1600,-3675,1708,-6261
5311,581,594,919,813,312,10544,-14804,-1660,-3503,1555,-6147
5314,563,614,919,809,335,10460,-14072,-1152,-3829,1666,-5899
5317,573,656,922,789,330,11276,-14568,-740,-3122,1676,-5860
5320,528,708,924,783,342,10596,-14960,-644,-3027,1466,-5853
5323,497,755,931,768,336,11316,-14868,-476,-2601,1641,-5918
5326,496,798,939,771,342,11368,-14932,-952,-2532,1845,-5857
5329,462,832,938,784,335,11704,-14800,-944,-2365,2022,-5950
5332,459,855,919,801,325,11848,-15908,-560,-2070,2302,-5908
5335,462,877,925,816,331,12252,-16624,-492,-1856,2770,-5964
5338,458,879,923,807,320,12196,-16344,-248,-1375,3279,-5831
5341,461,880,927,790,319,11412,-15476,-836,-809,4216,-5472
5344,471,863,939,787,308,10784,-14176,-1668,-977,4352,-5132
5347,481,842,951,784,304,10524,-13924,-1716,-972,4727,-4903
5350,511,816,958,784,306,10592,-14120,-1568,-948,5174,-4766
5353,525,778,971,789,310,10700,-14180,-1632,-1143,5463,-4737
5356,511,709,970,788,326,11076,-14196,-1880,-1196,5278,-4724
5359,511,663,975,783,336,11084,-14380,-1876,-1202,4913,-4913
5362,525,613,997,786,331,11128,-14292,-1236,-1276,4579,-5071
5365,533,573,1017,773,343,11152,-14496,-1508,-1268,4461,-5335
5368,543,576,1038,769,347,11404,-14484,-1540,-1274,4549,-5502
5371,545,599,1043,776,361,11780,-14500,-1336,-1311,4463,-5511
5374,544,624,1042,771,339,11664,-14588,-1024,-1110,4264,-5776
5377,556,645,1035,757,336,11596,-14464,-852,-1101,4124,-5999
5380,571,667,1009,755,318,11952,-14424,-1356,-1043,3823,-6252
5383,573,675,992,727,323,11676,-14460,-1204,-758,3724,-6624
5386,576,695,962,727,326,12072,-14440,-1028,-485,3514,-6805
5389,560,717,932,723,336,12340,-14488,-1332,-351,3208,-7039
5392,560,749,903,717,325,12540,-14544,-1240,-281,3187,-7330
5395,541,781,896,707,318,12920,-14488,-1288,-266,3323,-7657
5398,523,815,893,718,311,12484,-14604,-1560,-99,2795,-7953
5401,511,836,891,718,304,12388,-14268,-1304,-264,2812,-8372
5404,511,848,915,720,286,12516,-14228,-1272,-415,2601,-8629
5407,511,841,931,715,270,12508,-14036,-1172,-509,2503,-8868
5410,511,816,947,720,257,12256,-13384,-928,-1051,1959,-8928
5413,508,784,961,710,245,12132,-13484,-1476,-1069,1739,-8788
5416,501,761,962,719,235,11412,-13676,-1020,-1030,1423,-8746
5419,511,720,955,730,226,12172,-13496,-1776,-1224,2120,-8638
5422,533,688,945,742,230,12004,-13644,-1740,-1400,2959,-8506
5425,550,671,935,749,237,11924,-13684,-2096,-1242,3655,-8369
5428,560,679,934,752,231,11520,-13684,-2564,-1842,3900,-8258
5431,559,693,943,721,225,11288,-14184,-1856,-1940,4214,-8149
5434,567,719,960,719,251,11112,-14440,-1696,-2001,4127,-7915
5437,560,751,975,716,249,10936,-13936,-1164,-2574,3871,-7815
5440,559,752,966,727,247,10452,-14724,-1256,-2417,3597,-7764
5443,566,737,975,738,305,11648,-14396,-1464,-2506,4731,-7527
5446,579,729,1003,732,297,10896,-14860,-1844,-1819,3769,-6968
5449,550,728,1010,721,310,10776,-14024,-1196,-2153,3227,-7065
5452,529,733,1033,705,311,11092,-14396,-1572,-1927,3289,-6901
5455,526,750,1068,711,309,11456,-14164,-1420,-1722,4562,-6864
5458,500,759,1091,698,313,11556,-13912,-692,-1373,4267,-6752
5461,475,752,1116,702,309,11040,-13892,-1776,-1599,2660,-6627
5464,474,741,1136,710,295,11460,-13372,-932,-1446,2974,-6612
5467,475,721,1143,718,275,12012,-13344,-1024,-1185,3257,-6580
5470,479,699,1142,725,271,11696,-12820,-1176,-1061,3062,-6700
5473,477,661,1142,729,256,12072,-12676,-912,-979,3652,-6735
5476,497,639,1131,717,240,12304,-12804,-960,-1030,3820,-6874
5479,490,625,1119,710,239,12328,-12680,-676,-1059,3736,-6917
5482,496,631,1099,706,228,12512,-13032,-1292,-1312,3586,-7084
5485,507,623,1094,696,213,12248,-12776,-1056,-1405,2554,-7080
5488,523,610,1083,699,206,12464,-12800,-1084,-1687,2291,-7292
5491,539,620,1072,698,192,12596,-12260,-1224,-1975,2074,-7491
5494,565,634,1041,691,193,12752,-12484,-1320,-2098,2340,-7619
5497,560,658,1015,699,187,12784,-12348,-1492,-2297,1633,-7729
5500,558,695,1007,695,179,12764,-12036,-880,-2476,1348,-7884
5503,551,722,1007,709,195,13264,-12072,-1368,-2565,1628,-7845
5506,528,721,1015,720,187,13516,-11996,-904,-2889,1937,-8145
5509,511,716,1011,725,176,13148,-12484,-1888,-2740,1420,-8099
5512,528,697,1008,720,176,13352,-12600,-1688,-3143,1097,-8127
5515,524,688,995,720,177,13876,-12384,-1276,-3005,1402,-8198
5518,511,687,995,715,174,14004,-12376,-1220,-2639,1433,-8095
5521,525,678,983,716,192,13764,-12408,-1388,-2610,1455,-8161
5524,527,667,977,715,192,13788,-12556,-1340,-2535,1355,-8141
5527,510,655,974,719,187,14076,-12660,-864,-2569,1735,-8154
5530,508,677,944,711,211,14216,-12864,-1124,-2251,1515,-8023
5533,510,690,922,693,243,14464,-12408,-860,-2735,1150,-8191
5536,500,705,911,705,246,14392,-12164,-936,-2973,998,-8470
5539,507,739,919,715,277,14008,-12580,-1020,-2772,768,-8491
5542,511,735,934,711,278,15040,-12764,-816,-2648,927,-8450
5545,486,734,947,710,275,15300,-12896,-1212,-2408,1118,-8370
5548,481,723,934,702,295,15496,-12460,-712,-2242,1624,-8287
5551,483,713,929,699,298,15024,-12408,-744,-2122,1491,-8396
5554,479,703,922,699,296,14800,-12448,-772,-1988,1208,-8433
5557,468,690,912,704,291,14464,-12236,-564,-1857,432,-8378
5560,467,662,909,702,272,14964,-12216,-568,-1923,436,-8522
5563,468,659,897,711,281,14960,-12324,-916,-1722,311,-8716
5566,473,641,880,719,272,15124,-12228,-864,-1672,400,-8828
5569,480,623,871,716,256,15656,-12180,-732,-1414,1050,-8967
5572,480,605,853,726,255,15168,-12072,-824,-1285,1160,-9096
5575,480,595,843,736,274,14892,-11824,-624,-939,1408,-9063
5578,485,594,838,745,279,14484,-11956,-996,-507,1511,-9033
5581,497,592,853,761,311,15276,-11952,-580,-381,1354,-8921
5584,501,588,846,755,336,14948,-11876,-2424,-738,1108,-9035
5587,506,590,838,753,330,15072,-12012,-1656,-491,853,-9093
5590,503,586,835,752,315,15444,-11320,-744,-417,2907,-9226
5593,503,581,832,747,313,15216,-10864,-728,-388,3590,-9278
5596,501,589,834,743,303,15100,-11224,-1172,-334,3902,-9328
5599,527,578,831,746,307,15064,-11136,-964,-367,5123,-9428
5602,547,576,835,749,302,14784,-11004,-1012,-518,5217,-9555
5605,539,569,833,755,291,14584,-10964,-1112,-530,4546,-9553
5608,530,553,819,769,299,14340,-10576,-1336,-824,3743,-9519
5611,554,541,823,779,292,14584,-10320,-1012,-776,4218,-9568
5614,555,543,810,782,272,13984,-10660,-1524,-575,3384,-9411
5617,551,531,810,779,268,13944,-10420,-1084,-784,2930,-9585
5620,573,511,803,773,271,13844,-10424,-1076,-743,2805,-9564
5623,554,507,825,773,257,14152,-10412,-996,-666,2807,-9614
5626,563,506,811,771,262,13844,-10680,-1204,-597,2916,-9659
5629,556,502,803,774,256,14396,-10288,-860,-586,2929,-9632
5632,560,507,800,778,267,14728,-10200,-1156,-519,3327,-9655
5891,715,704,891,912,1392,13944,-5364,836,-2064,2117,-7314
5895,727,714,879,938,1349,13968,-5340,940,-2337,2377,-7383
5898,701,698,863,923,1281,14028,-5176,340,-2405,2537,-7319
5901,694,695,850,920,1243,14412,-5284,624,-2232,3030,-7198
5904,683,681,857,903,1196,14244,-5012,76,-2427,2429,-7238
5907,672,669,873,865,1153,14324,-5244,256,-2245,2740,-7057
5910,680,662,878,858,1117,14580,-5020,584,-2262,3013,-7109
5913,688,652,880,848,1085,14624,-5200,352,-2109,2659,-7048
5916,695,643,883,865,1047,14720,-5164,-172,-2284,2648,-7066
5919,701,650,885,864,1005,14900,-5504,424,-2250,2721,-6999
5922,707,660,912,853,966,14960,-5644,344,-2185,2608,-6966
5925,742,656,911,845,931,14592,-5516,756,-2310,1809,-6977
5928,727,672,912,832,907,15108,-5632,596,-2203,2223,-6859
5931,704,675,906,825,874,14580,-5588,-12,-2236,1714,-6949
5934,673,671,918,816,850,14380,-6344,208,-1270,680,-6222
5937,639,690,923,797,817,14296,-6212,360,-1355,772,-6089
5940,602,674,940,784,795,14624,-5908,140,-1491,1633,-6171
5943,583,688,944,800,799,14568,-6048,832,-1558,2439,-6457
5946,558,677,970,800,775,14712,-5768,408,-1537,2204,-6602
5949,560,689,981,814,755,14392,-5528,228,-1137,2813,-6668
5952,558,686,985,803,733,14356,-5572,716,-689,2837,-6325
5955,558,677,975,798,704,14248,-5200,692,-313,3778,-6107
5958,555,673,959,793,690,14160,-5348,952,-256,4212,-6133
5961,569,679,944,784,671,14172,-5092,776,-444,3417,-6143
5964,599,682,930,783,653,14544,-4544,668,-612,3622,-6292
5967,631,669,915,777,631,14320,-5168,996,-486,2945,-6215
5970,638,656,923,775,612,14460,-5568,1180,-260,2399,-6067
5973,619,639,915,778,593,15040,-5664,1072,-149,2258,-5908
5976,624,635,915,745,589,15368,-5444,1392,-137,1761,-5893
5979,637,649,921,722,571,15240,-5368,1472,-2,1869,-5673
5982,640,626,924,735,555,15504,-5036,1408,50,1515,-5626
5985,665,643,918,727,539,15484,-5004,636,61,1512,-5679
5988,686,656,914,726,528,15336,-5396,888,273,2088,-5574
5991,705,663,897,736,511,15540,-5148,1496,293,2603,-5410
5994,714,674,894,738,497,15400,-5024,1648,486,3244,-5181
5997,719,686,910,765,489,15048,-4840,1760,648,3456,-4830
6000,703,683,912,766,471,15040,-4684,1516,648,3055,-4670
6003,715,688,912,777,461,14396,-4520,1444,835,2048,-4503
6006,723,688,912,793,451,14884,-4404,1080,708,1300,-4557
6009,730,698,912,818,435,14840,-4408,1356,759,1249,-4520
6012,735,691,918,801,423,15028,-4048,936,742,519,-4397
6015,713,707,885,772,414,15140,-3812,1212,691,358,-4451
6018,711,721,964,779,403,15464,-3756,1452,759,351,-4367
6021,703,705,910,784,399,15460,-3520,1392,787,-248,-4267
6024,698,726,893,789,388,16252,-3392,1772,808,63,-4189
6027,688,752,897,798,379,15760,-3276,1432,209,-21,-4430
6030,669,747,889,800,370,16444,-3032,2088,186,778,-4404
6033,702,746,909,795,368,16796,-3084,1780,136,1199,-4376
6036,685,731,895,810,367,16560,-3264,1712,-126,1183,-4527
6039,661,709,885,785,361,16572,-3172,2212,23,1648,-4602
6042,669,693,885,800,352,17500,-2944,1704,336,2016,-4677
6045,674,705,883,796,350,16760,-3220,2068,867,2266,-5045
6048,675,695,905,784,355,17740,-3448,2228,1601,2953,-6387
6051,684,693,912,795,346,18600,-2120,2256,1134,3302,-6212
6054,690,701,912,798,342,15076,-2216,1352,118,2699,-4712
6057,692,704,898,797,336,12828,-3128,3128,402,1493,-4970
6060,717,694,907,799,336,15904,-2572,2248,245,2374,-4623
6063,724,691,897,800,332,17692,-2064,2724,31,4258,-4586
6066,730,693,893,793,331,16176,-2396,2176,-4,4008,-4527
6069,720,685,886,793,323,15756,-2636,1928,-94,2987,-4359
6072,723,687,895,804,320,16504,-2516,2172,-318,3346,-4371
6075,750,687,891,795,318,16684,-2332,2344,-320,3673,-4458
6078,747,676,896,789,309,16464,-2688,1924,-290,3535,-4389
6081,771,682,898,803,305,16268,-2536,1916,-112,3481,-4362
6084,755,656,897,816,303,16120,-2296,2188,-587,3497,-4753
6087,777,722,906,830,299,16640,-2716,1876,-277,4031,-4445
6090,752,721,902,848,294,16732,-2528,1644,-695,3608,-4650
6093,754,735,899,866,288,16380,-3188,2132,-327,4520,-4300
6096,766,738,893,881,287,16488,-3236,1744,-445,4208,-4250
6099,761,721,889,891,281,16708,-3616,1652,-255,5182,-4224
6102,784,720,893,885,277,16548,-3184,1524,-520,5151,-4404
6105,790,717,881,880,272,16136,-3160,2016,-609,4951,-4387
6108,794,729,880,859,268,15784,-3016,1916,-464,4229,-4195
6111,810,734,880,837,265,16548,-2900,2424,-412,4895,-4257
6114,817,745,871,847,259,17036,-2628,2016,-514,5432,-4383
6117,827,749,870,842,258,16852,-2628,2204,-250,5520,-4208
6120,819,748,868,841,256,16304,-2780,2132,-64,4791,-4260
6123,823,742,866,822,251,15900,-3480,2412,374,4066,-3957
6126,816,733,869,812,253,16348,-3340,2432,391,3004,-4088
6129,824,720,867,775,244,16388,-3700,2556,337,2955,-4385
6132,830,689,868,755,240,17272,-3728,2672,797,3393,-4293
6135,835,673,871,750,247,16464,-3152,2148,776,2459,-4453
6138,849,682,868,750,242,16332,-2940,1796,1012,2541,-4193
6141,857,683,876,738,244,16384,-2544,1924,1029,2810,-4047
6144,870,691,873,758,240,15732,-2648,1688,1057,2653,-3849
6147,867,694,869,759,235,16220,-2608,2416,1021,3795,-3750
6150,863,750,866,749,236,15744,-2708,2200,1213,3433,-3540
6153,861,655,870,730,234,15636,-2980,2324,1153,3331,-3474
6156,843,717,873,722,228,15620,-3196,1868,1104,2654,-3463
6159,820,695,874,720,225,16460,-3068,2232,1001,3370,-3342
6162,820,701,878,714,218,16616,-3276,2328,1077,3353,-3304
6165,831,691,870,722,223,16272,-2920,2516,918,3385,-3486
6168,831,704,862,711,220,16708,-3028,2588,962,4295,-3530
6171,829,707,877,702,215,16292,-3252,2596,1140,4206,-3501
6174,838,720,868,701,217,16468,-2780,2556,1195,3792,-3297
6177,848,721,867,702,211,16740,-2704,2916,1387,4402,-3294
6180,848,722,863,685,208,16032,-2652,2572,1623,3970,-3301
6183,859,715,861,685,213,16052,-2576,2508,2065,3864,-3077
6186,854,720,854,693,211,16144,-2556,2620,2280,3994,-3071
6189,849,741,853,697,213,15936,-2592,2624,2422,3274,-3168
6192,849,719,854,690,208,15856,-2612,2336,2495,3121,-3111
6195,851,738,850,687,208,16608,-2292,2708,2513,3366,-3076
6198,850,722,851,686,209,16116,-2196,3252,2349,3105,-3237
6201,850,717,851,688,203,16108,-2364,2764,2576,2994,-3102
6204,855,710,855,691,203,16292,-2368,3348,2298,3271,-3365
6207,859,714,857,695,203,16848,-2684,3340,2330,3539,-3391
6210,854,707,848,694,210,16320,-2208,3488,2460,3932,-3459
6213,849,725,861,702,203,16000,-1824,2640,2460,3268,-3423
6216,848,730,861,693,208,16128,-1628,2740,2347,3085,-3173
6219,850,694,851,701,203,16892,-1684,3200,2372,3521,-3004
6222,848,720,849,701,208,16176,-1824,3112,2315,3199,-2940
6225,850,719,850,710,203,16092,-1972,2808,2189,2059,-2746
6228,864,727,857,693,205,16748,-1876,3184,1972,1810,-2753
6231,868,722,855,685,207,16708,-1608,4084,1759,1903,-2752
6234,875,721,868,682,203,16968,-1564,3888,1857,1702,-2614
6237,886,720,855,679,204,17104,-1496,4188,1762,2563,-2690
6240,896,737,862,678,198,17168,-1184,3516,1517,2020,-2496
6243,877,735,856,647,201,16384,-2016,4296,1692,3458,-2369
6246,871,747,867,635,205,16948,-1356,3088,1511,2828,-2329
6249,861,752,867,624,208,16676,-1044,3844,1564,2270,-2145
6252,853,731,857,637,207,17080,-932,4176,1419,1707,-2143
6255,847,709,861,641,207,16180,-1080,3112,1546,918,-2104
6258,837,714,858,647,207,17024,-864,3168,1341,1084,-2216
6261,832,711,859,644,206,16532,-748,2932,1006,765,-2361
6264,828,717,862,643,207,17188,-848,3892,1099,2090,-2273
6267,823,707,865,646,206,17280,-852,3924,924,2333,-2222
6270,816,709,865,669,200,16056,-1312,3964,1135,1792,-2182
6273,816,715,865,687,203,16984,-1328,4428,1114,2232,-2004
6276,818,722,863,700,208,17348,-712,3616,300,2334,-2357
6279,817,725,858,711,205,17720,-848,3992,116,3265,-2419
6282,812,731,855,717,202,16904,-440,3260,-95,3057,-2444
6285,816,721,849,719,199,17424,-368,3564,-68,3262,-2177
6288,821,730,851,724,201,17028,0,3536,-551,3028,-2426
6291,818,731,848,731,199,16800,-280,4308,-502,3634,-2403
6294,830,735,848,743,205,16892,-320,3652,-455,3249,-2095
6297,835,739,849,752,197,16988,-196,3340,-694,3298,-2139
6300,827,759,849,762,193,16820,-288,3428,-850,3271,-2146
6303,848,752,850,765,195,16836,-248,3632,-1065,3207,-2307
6306,851,753,848,756,193,16788,-344,3664,-1424,2758,-2194
6309,849,752,848,738,193,18060,-508,3096,-1376,2867,-2136
6312,854,742,848,722,193,16724,-888,3632,-1498,2885,-2360
6315,849,743,848,706,194,16564,-1140,3028,-1465,2514,-2387
6318,853,745,848,697,191,17256,-1168,3940,-1551,3232,-2515
6321,862,751,848,690,191,17144,-1236,3296,-1770,2681,-2429
6324,855,753,845,692,190,17296,-996,3544,-1911,2876,-2486
6327,862,737,848,709,187,17272,-1120,3700,-1916,2809,-2505
6330,869,743,851,720,185,16752,-1164,3560,-2093,2733,-2571
6333,869,737,850,723,185,16404,-1240,3664,-1993,2554,-2566
6336,874,722,846,721,183,16424,-1140,3684,-2087,1738,-2605
6339,867,731,851,720,186,17328,-796,4036,-2416,1590,-2643
6342,857,726,851,720,189,16884,-1220,3636,-2445,1329,-2676
6345,854,722,851,731,187,16176,-1552,3232,-2181,1546,-2584
6348,848,735,854,730,186,16836,-2016,3540,-1959,1456,-2357
6351,848,741,858,737,190,16796,-1856,3504,-1913,1277,-2260
6354,840,739,856,735,185,16452,-1908,3868,-1810,1226,-2214
6357,855,736,855,733,188,16528,-1888,3888,-1738,1229,-2231
6360,844,726,861,726,178,16408,-1936,3892,-1593,1283,-2180
6363,843,749,851,711,182,16568,-1964,3860,-1497,1377,-2183
6366,843,750,862,682,179,16276,-2284,4064,-1284,1028,-2105
6369,838,759,864,675,185,16268,-2264,3732,-1040,610,-2009
6372,838,755,851,669,183,16504,-2116,3852,-956,718,-2030
6375,838,762,857,684,186,16360,-2088,3872,-1067,910,-2103
6378,839,759,859,689,190,16296,-1884,4204,-1164,1342,-2142
6381,850,746,860,690,192,16272,-1864,3864,-1058,1348,-2121
6384,852,734,853,686,199,16472,-2012,3800,-992,993,-2063
6387,848,715,853,677,191,16332,-2128,3320,-914,891,-1957
6390,848,708,854,679,197,16112,-2252,3416,-736,982,-1784
6393,841,714,851,669,192,16112,-2108,3656,-524,985,-1597
6396,842,707,851,672,189,16012,-2084,3416,-501,651,-1521
6399,848,698,849,681,193,16492,-1872,3764,-470,1091,-1522
6402,846,693,850,677,187,16148,-1796,4044,-361,877,-1433
6405,849,695,848,688,190,16204,-1696,4184,-307,844,-1446
6408,850,698,852,683,190,16468,-1532,4064,-477,1080,-1591
6411,852,694,850,668,183,16380,-1648,3464,-464,1118,-1544
6414,850,707,855,659,189,16996,-1516,3996,-424,2021,-1497
6417,848,695,858,649,192,16960,-1264,3720,-633,2164,-1548
6420,841,698,853,635,187,17192,-1144,4364,-624,2880,-1571
6423,835,714,855,624,188,16040,-1100,3864,-463,1820,-1296
6426,830,729,858,615,185,17084,-604,4840,-603,1887,-1478
6429,832,718,869,605,183,16456,-948,5008,-385,1605,-1226
6432,827,717,870,603,183,16548,-1052,4408,-446,1024,-1199
6435,827,717,863,599,185,16432,-996,4292,-482,946,-1131
6438,822,722,866,597,186,16964,-1064,4460,-650,1667,-1087
6441,816,718,867,598,185,16372,-1332,4236,-614,1058,-951
6444,817,708,874,607,183,16444,-1164,4528,-742,804,-925
6447,811,696,863,624,185,16472,-1068,4628,-833,688,-892
6450,802,698,867,640,187,16632,-1176,4652,-884,698,-904
6453,810,698,870,652,183,16868,-1060,4576,-887,827,-821
6456,802,705,871,657,180,16756,-1116,4528,-755,747,-715
6459,806,709,867,665,177,16836,-992,4548,-752,626,-618
6462,811,714,863,659,179,16968,-1040,3984,-844,648,-635
6465,817,710,860,661,182,16680,-984,3708,-912,704,-693
6468,826,720,867,656,183,16956,-1124,3508,-954,784,-657
6471,829,734,875,656,176,16880,-1324,3380,-1043,622,-661
6474,826,737,871,641,176,16964,-1248,3772,-1059,575,-671
6477,820,752,865,634,176,16860,-1316,3864,-1052,442,-580
6480,817,754,873,624,181,16920,-1300,4092,-1259,624,-720
6483,810,762,878,621,176,16644,-1336,4312,-1282,476,-659
6486,806,759,879,623,177,17036,-1312,4360,-1410,557,-707
6489,810,754,879,607,177,16804,-1356,4380,-1412,403,-675
6492,816,753,878,594,176,16628,-1368,4292,-1371,323,-706
6495,815,749,880,602,176,16668,-1288,4548,-1329,323,-663
6498,823,737,879,610,176,16684,-1168,4372,-1329,239,-607
6501,821,723,877,619,177,16660,-1156,4196,-1296,283,-550
6504,817,718,880,617,175,16696,-1104,4172,-1276,311,-495
6507,818,697,872,610,175,16716,-1064,4132,-1303,335,-468
6510,827,690,879,610,175,16568,-952,4052,-1323,394,-493
6513,817,686,880,610,176,16644,-800,3808,-1408,460,-488
6516,822,685,879,618,176,16360,-1232,3980,-1428,1153,-531
6519,831,681,879,633,173,16340,-1160,3248,-1482,209,-339
6522,823,681,881,632,170,16940,-880,3936,-1683,130,-408
6525,823,679,882,640,171,16952,-1032,4080,-1799,301,-347
6528,826,687,883,641,176,17052,-1036,3984,-1889,521,-289
6531,822,685,880,643,175,16924,-1076,3768,-1966,497,-188
6534,819,687,885,637,171,16816,-1212,3808,-2025,439,-133
6537,832,693,889,630,175,17116,-1196,3912,-2073,482,-147
6540,835,695,891,625,170,16904,-1384,3692,-2130,483,-153
6543,833,705,892,625,170,16960,-1292,4100,-2230,383,-220
6546,833,719,887,625,174,17052,-1360,3896,-2392,310,-230
6549,832,731,892,625,168,17704,-1588,3860,-2324,468,-257
6552,829,720,884,629,167,16724,-1500,4020,-2345,264,-281
6555,819,720,893,624,170,16896,-1472,4060,-2350,305,-309
6558,816,719,890,605,174,16684,-1500,4152,-2339,138,-260
6561,815,726,889,607,167,17112,-1344,4108,-2344,239,-238
6564,816,732,889,603,167,16852,-1384,4364,-2254,157,-190
6567,816,730,884,607,167,17088,-1456,4380,-2124,250,-145
6570,807,732,885,606,171,16800,-1344,4352,-2022,160,-164
6573,809,731,885,613,167,16856,-1376,4372,-1895,74,-135
6576,810,731,881,610,170,16880,-1344,4416,-1909,63,-122
6579,811,723,880,604,172,17324,-1120,4636,-1973,161,-75
6582,809,720,880,609,173,16576,-1376,4596,-1867,92,-121
6585,803,711,880,615,175,16832,-1324,4616,-1888,110,-91
6588,802,695,882,624,168,17044,-1364,4440,-1866,164,-34
6591,801,688,880,631,175,16988,-1332,4524,-1786,234,-18
6594,810,679,880,629,171,16872,-1312,4616,-1642,147,-17
6597,814,677,885,624,175,16884,-1284,4260,-1549,106,35
6600,814,681,880,628,171,17056,-1408,4348,-1473,236,-9
6603,815,686,865,626,167,16876,-1568,4364,-1359,259,-42
6606,820,685,880,629,172,16880,-1408,4316,-1261,280,-19
6609,823,685,879,629,171,16816,-1576,4328,-1135,336,-28
6612,830,683,873,629,171,16980,-1608,4248,-1025,289,-26
6615,837,688,867,625,171,17068,-1536,4320,-929,294,-24
6618,845,688,878,630,169,17392,-1528,4180,-844,336,13
6621,846,695,887,631,172,16680,-1580,4456,-827,242,-86
6624,842,698,880,637,167,16712,-1552,4536,-785,223,-66
6627,838,709,876,636,171,16912,-1396,4388,-681,145,-62
6630,844,709,877,640,173,16912,-1360,4276,-674,116,-42
6633,845,719,871,641,175,17008,-1400,4464,-617,116,-36
6636,832,722,874,647,173,17020,-1328,4276,-534,133,-37
6639,832,727,869,651,169,16976,-1328,4200,-495,68,-32
6642,826,735,875,652,171,17124,-1324,4488,-382,26,87
6645,830,740,866,656,172,17156,-1304,4232,-354,126,23
6648,827,743,866,661,165,17176,-1372,4076,-405,101,-11
6651,827,742,865,662,169,17236,-1288,3972,-428,162,-21
6654,827,752,868,656,169,17116,-1284,4056,-471,65,-53
6657,823,763,874,650,173,17056,-1220,4060,-515,45,-117
6660,829,764,865,647,174,17048,-1168,4232,-521,69,-145
6663,830,769,871,639,172,17112,-1100,4044,-509,100,-174
6666,829,753,875,638,170,17192,-1048,4244,-511,83,-179
6669,830,752,864,634,174,17076,-996,4120,-487,146,-196
6672,825,751,866,634,170,17076,-1016,4152,-455,176,-191
6675,827,751,859,629,170,16956,-932,4368,-465,210,-234
6678,823,742,864,623,171,17028,-920,4260,-494,220,-251
6681,831,739,861,611,169,16940,-1044,4276,-452,231,-249
6684,832,735,864,618,171,16764,-912,4300,-459,236,-297
6687,836,734,863,617,173,16864,-820,4104,-421,224,-305
6690,839,727,865,620,171,16836,-848,4080,-456,193,-285
6693,831,739,863,619,169,16836,-808,4228,-477,200,-267
6696,835,745,869,629,174,16944,-812,4272,-601,170,-285
6699,829,743,864,642,173,16884,-768,4388,-665,162,-309
6702,833,742,863,658,172,16968,-800,4484,-761,133,-259
6705,834,743,864,669,168,17048,-672,4336,-899,122,-278
6708,833,739,863,676,166,17084,-820,4236,-947,208,-269
6711,833,743,861,685,173,17096,-772,4364,-1056,118,-243
6714,831,750,861,688,166,17080,-932,4244,-1178,103,-250
6717,820,751,861,685,165,17072,-816,4256,-1289,93,-204
6720,831,752,861,687,167,16996,-1040,4388,-1272,55,-195
6723,829,750,865,700,165,16964,-948,4380,-1335,44,-215
6726,825,747,862,681,169,17012,-1084,4084,-1307,132,-239
6729,819,741,864,681,163,17064,-1048,4108,-1323,183,-242
6732,825,742,864,673,169,16840,-1104,3948,-1332,200,-278
6735,826,742,865,672,167,16748,-1168,4136,-1343,164,-270
6738,830,749,865,665,165,16828,-1132,4084,-1363,188,-304
6741,828,751,869,655,162,16668,-1212,4188,-1358,182,-279
6744,832,752,866,656,167,16664,-1164,4184,-1327,193,-275
6747,839,749,865,646,167,16764,-1356,4264,-1294,178,-255
6750,833,750,867,637,166,16808,-1308,4184,-1270,215,-218
6753,825,751,868,635,169,16848,-1296,4312,-1255,183,-185
6756,839,746,867,631,169,16744,-1256,4380,-1239,154,-157
6759,829,739,875,626,173,16800,-1180,4384,-1255,180,-143
6762,827,721,875,638,171,16784,-1188,4412,-1283,173,-102
6765,833,706,875,626,162,16852,-1152,4396,-1255,185,-57
6768,835,694,876,631,167,16908,-1204,4236,-1218,229,-36
6771,837,697,874,639,166,16884,-1108,4292,-1136,221,28
6774,838,688,874,640,166,16952,-1176,4204,-1114,222,31
6777,842,689,871,650,166,16956,-1092,4144,-1124,236,47
6780,839,712,875,647,165,17028,-1136,4128,-1166,228,41
6783,839,695,895,656,163,16852,-1248,4064,-1249,188,61
6786,839,703,879,658,170,17012,-1308,4148,-1271,165,-6
6789,842,704,873,655,169,17036,-1356,4092,-1291,190,-20
6792,832,710,871,655,177,17324,-1284,3944,-1073,249,120
6795,835,722,873,655,176,16676,-1364,4484,-1208,183,-67
6798,833,720,867,654,174,16984,-1420,4188,-1150,93,-81
6801,832,735,870,655,174,17012,-1396,4120,-1122,123,-40
6804,834,740,869,656,176,16968,-1552,4168,-1099,100,-100
6807,832,757,867,658,173,16956,-1412,4260,-1125,113,-114
6810,833,740,870,656,176,17028,-1352,4512,-1156,121,-123
6813,832,731,867,659,172,17036,-1464,4280,-1135,166,-131
6816,829,720,866,663,170,17024,-1420,4384,-1107,174,-116
6819,828,720,866,661,169,16924,-1232,4280,-1018,200,-119
6822,826,727,863,655,172,16992,-1348,4064,-1058,195,-118
6825,829,731,865,652,170,16940,-1496,4248,-1007,229,-91
6828,827,730,871,647,173,16928,-1360,4188,-1019,249,-70
6831,827,724,869,665,170,16964,-1368,4172,-1027,248,-52
6834,823,726,874,641,170,16964,-1472,4056,-1010,230,-54
6837,826,723,869,647,173,16888,-1448,4104,-1030,249,-55
6840,825,726,868,643,174,16752,-1448,4036,-1010,243,-42
6843,829,727,873,642,171,16752,-1472,4232,-1001,173,-34
6846,829,727,873,640,168,16748,-1636,3980,-983,172,-63
6849,833,725,873,636,170,16708,-1648,4228,-979,155,-25
6852,834,725,877,631,172,16804,-1584,3992,-925,156,-55
6855,835,733,871,628,176,16692,-1772,3968,-881,111,-41
6858,832,730,879,627,176,16680,-1676,4132,-828,32,-32
6861,834,723,875,624,173,16872,-1752,4256,-757,3,-1
6864,832,723,874,628,173,16748,-1748,4088,-714,56,-18
6867,832,715,883,625,171,16856,-1648,4132,-729,71,-44
6870,832,704,877,629,177,16664,-1776,4216,-637,-112,29
6873,834,704,875,630,177,16764,-1724,4268,-555,-87,32
6876,835,703,873,633,176,16948,-1596,4216,-534,-2,53
6879,831,703,880,634,179,17048,-1660,4348,-510,-14,68
6882,831,704,880,635,173,16920,-1684,4220,-512,-116,89
6885,826,707,877,640,176,17048,-1596,4360,-521,-112,81
6888,825,707,877,640,179,17044,-1532,4332,-531,-61,108
6891,816,705,874,640,173,17180,-1492,4396,-530,-14,99
6894,816,710,865,640,175,17164,-1596,4180,-563,33,95
6897,815,708,867,655,176,17088,-1584,4212,-567,51,149
6900,816,710,865,650,173,17072,-1484,4132,-581,31,138
6903,817,709,865,653,176,17016,-1476,4028,-617,102,115
6906,819,711,868,646,177,17076,-1532,4068,-637,151,91
6909,823,714,867,649,176,17088,-1556,4176,-607,85,102
6912,817,718,863,646,176,17044,-1572,4064,-628,114,97
6915,825,721,865,643,175,16896,-1564,4048,-643,184,46
6918,821,723,869,633,175,16928,-1640,3888,-641,190,52
6921,820,728,874,633,173,16984,-1584,4244,-648,150,53
6924,827,730,875,639,174,16900,-1604,4108,-651,184,33
6927,829,732,867,639,175,17008,-1608,4252,-678,201,30
6930,821,733,875,649,176,16856,-1500,4240,-687,176,-2
6933,833,734,873,647,174,16980,-1440,4356,-694,134,5
6936,832,736,879,647,173,17012,-1592,4104,-659,135,-29
6939,832,736,877,651,174,16900,-1484,4200,-596,176,-16
6942,835,752,879,654,175,17040,-1432,4160,-548,165,-20
6945,832,738,866,656,176,17048,-1492,4332,-499,147,-36
