Time,MMG1,MMG2,MMG3,MMG4,EMG,AccelX,AccelY,AccelZ,GyroX,GyroY,GyroZ
0,718,768,893,759,2529,3972,-16224,108,-785,120,-114
4,720,753,893,753,2413,3852,-16068,-68,-737,111,-134
7,716,755,894,757,2317,3964,-16096,-20,-737,93,-134
10,698,735,885,738,2206,3932,-16144,80,-747,104,-129
13,699,739,887,731,2112,3928,-16136,-56,-715,98,-140
16,703,752,887,731,2023,3984,-16212,-48,-707,98,-122
19,700,738,883,734,1946,3996,-16096,-60,-715,81,-112
22,702,737,887,731,1872,3972,-16128,56,-687,84,-106
25,702,736,896,732,1792,3956,-16140,-144,-703,111,-135
28,704,738,885,726,1722,4032,-16136,56,-699,95,-118
31,697,735,885,733,1648,4080,-16132,4,-672,100,-84
34,699,748,889,729,1569,4188,-15908,60,-738,187,-172
37,706,744,884,729,1504,3912,-16092,44,-709,224,-147
40,703,736,890,731,1435,4028,-16096,-72,-733,193,-169
43,702,736,891,739,1373,4128,-16216,-68,-682,158,-106
46,702,738,886,731,1315,4192,-16176,-80,-675,128,-107
49,702,739,886,731,1259,4208,-16112,-164,-729,112,-112
52,701,741,884,734,1203,4112,-16160,-120,-707,-3,-95
55,701,743,881,730,1150,4180,-16220,84,-720,-10,-64
58,704,743,886,730,1104,4244,-16156,48,-725,26,-65
61,703,739,883,730,1058,4208,-16188,20,-744,-5,-41
64,703,742,886,733,1003,4284,-16152,144,-746,-33,-33
67,704,746,891,730,959,4296,-16208,124,-777,-22,-47
70,705,746,889,731,914,4292,-16184,28,-793,-20,-55
73,704,744,887,730,875,4412,-16256,128,-792,-1,-39
76,704,751,891,729,833,4260,-16220,-48,-791,-35,-26
79,707,747,887,731,797,4364,-16188,120,-802,-19,-51
82,705,743,886,731,758,4276,-16184,72,-823,-41,-63
85,700,746,886,737,722,4284,-16288,164,-804,-100,-12
88,705,747,885,737,694,4240,-16288,120,-815,-97,-11
91,704,741,883,746,662,4264,-16216,116,-810,-145,3
94,704,742,886,735,636,4248,-16224,28,-846,-124,33
97,699,740,884,751,607,4104,-16236,172,-825,-156,49
100,705,739,885,739,581,4372,-16220,-40,-818,-142,56
103,700,741,887,739,553,4288,-16212,88,-818,-153,57
106,695,739,885,743,530,4188,-16292,-4,-831,-106,52
109,699,733,890,735,496,4240,-16260,184,-831,-88,72
112,701,740,884,735,475,4276,-16260,-140,-805,-81,50
115,697,740,883,739,459,4196,-16276,28,-817,-133,83
118,697,737,885,749,437,4216,-16268,-60,-798,-126,71
121,704,739,883,737,414,4196,-16320,-32,-773,-168,128
124,700,735,890,739,400,4224,-16340,-44,-790,-153,120
127,701,737,883,738,372,4068,-16132,-32,-814,-139,99
130,695,733,886,737,359,4292,-16284,-4,-832,-218,96
133,693,747,890,738,342,4156,-16272,20,-821,-197,94
136,695,743,887,737,323,4180,-16332,12,-812,-187,127
139,697,735,886,737,314,4316,-16288,120,-786,-149,155
142,694,739,885,739,295,4260,-16260,36,-821,-177,148
145,695,735,887,739,278,4304,-16104,-68,-874,-117,132
148,695,738,886,743,269,4100,-16248,56,-848,-182,103
151,719,736,882,742,256,4184,-16276,152,-824,-216,166
154,695,727,889,747,240,4244,-16208,24,-837,-200,169
157,688,730,880,741,234,4288,-16328,40,-819,-155,161
160,693,731,880,741,219,4256,-16264,156,-835,-102,177
163,695,731,882,744,212,4188,-16240,120,-838,-82,213
166,701,733,883,741,193,4228,-16144,188,-865,-50,203
169,695,746,880,741,191,4148,-16196,292,-847,-76,190
172,694,731,878,745,176,4116,-16224,68,-868,-68,192
175,695,738,883,747,163,4132,-16080,40,-867,-50,183
178,704,739,885,743,157,4084,-16176,4,-898,-36,162
181,699,738,881,743,147,4088,-16072,172,-878,-22,239
184,703,731,882,743,141,3924,-16216,36,-881,56,184
187,699,733,881,739,132,3756,-16164,172,-905,-58,178
190,702,735,877,743,125,3908,-16056,-76,-912,-89,173
193,704,736,882,743,117,3840,-16208,132,-895,-103,174
196,702,736,878,748,112,3864,-16156,48,-866,-57,198
199,701,734,880,746,110,3688,-16140,140,-887,-107,166
202,698,738,880,745,100,3716,-16248,40,-895,-94,156
205,699,738,882,743,90,3716,-16184,52,-892,-109,176
208,699,739,884,741,87,3736,-16160,12,-883,-87,138
211,701,737,890,741,80,3724,-16384,16,-874,-90,150
214,704,740,883,739,78,3760,-16264,136,-866,-64,132
217,704,740,889,739,70,3716,-16256,-44,-871,-128,89
220,703,726,884,741,64,3644,-16248,-84,-880,-55,97
223,699,748,882,743,61,3640,-16168,92,-862,-86,81
226,704,737,877,739,61,3612,-16260,52,-863,-100,55
229,703,742,880,733,52,3732,-16256,40,-872,-107,13
232,699,742,885,738,49,3660,-16320,124,-857,-104,4
235,698,743,887,737,48,3716,-16308,-44,-856,-56,-10
238,697,735,882,738,43,3636,-16220,-60,-852,-63,-21
241,699,743,880,739,36,3824,-16416,24,-821,-23,-43
244,699,752,882,743,34,3752,-16276,124,-818,-18,-84
247,701,748,880,735,25,3712,-16444,-24,-821,3,-73
250,702,750,887,736,22,3752,-16264,124,-831,-24,-139
253,698,747,886,733,23,3824,-16352,88,-798,7,-124
256,704,747,882,736,19,3772,-16252,184,-824,23,-136
259,699,747,884,736,16,3864,-16384,-8,-796,26,-178
262,703,746,880,737,16,3848,-16332,-12,-801,71,-166
265,699,750,891,735,6,3908,-16224,228,-779,61,-186
268,695,748,884,733,7,3812,-16208,4,-758,115,-189
271,709,747,888,738,6,3780,-16184,-60,-774,103,-178
274,697,747,887,735,1,3896,-15724,252,-833,198,-250
277,703,755,883,732,0,3516,-16284,184,-809,392,-378
280,704,743,887,735,0,3712,-16224,-8,-801,104,-289
283,703,751,890,734,0,3888,-16244,84,-734,147,-233
286,701,749,891,730,0,3892,-16180,36,-739,292,-290
289,705,752,889,735,0,3628,-16180,60,-792,210,-340
292,705,733,890,737,0,3892,-16320,-88,-723,63,-237
295,707,750,890,735,0,3976,-16192,72,-672,102,-214
298,707,749,891,734,0,3808,-16136,-36,-697,144,-257
301,707,751,894,731,0,3880,-16112,40,-725,119,-294
304,710,750,887,732,0,3900,-16232,116,-684,57,-248
307,704,742,887,737,0,4020,-16224,-112,-686,126,-249
310,704,751,881,733,0,4028,-16164,40,-698,169,-253
313,704,747,893,738,0,3948,-16176,-84,-699,105,-262
316,707,751,902,747,0,4056,-15992,-40,-712,113,-259
319,709,752,890,737,0,3980,-15980,-36,-723,103,-253
322,704,742,883,736,0,3980,-16116,172,-750,101,-263
325,709,752,883,737,0,3940,-16148,64,-760,79,-240
328,705,746,884,731,0,4012,-16068,116,-787,52,-259
331,704,751,886,734,0,4080,-16176,160,-834,62,-293
334,707,741,892,732,0,4140,-16300,260,-803,121,-300
337,703,751,893,736,0,4080,-16304,108,-799,110,-314
340,710,750,881,734,0,4100,-16212,64,-782,92,-264
343,705,750,894,731,0,4100,-16300,44,-781,153,-288
346,704,746,886,731,0,4056,-16276,36,-787,142,-304
349,704,750,892,734,0,4048,-16248,144,-817,129,-292
352,704,752,884,733,0,4040,-16208,328,-830,34,-319
355,704,755,890,734,0,4140,-16344,148,-822,53,-295
358,709,752,887,736,0,4224,-16212,188,-801,68,-284
361,701,752,890,734,0,4120,-16260,24,-802,95,-265
364,704,751,889,734,0,4112,-16176,140,-827,69,-252
367,707,752,891,736,0,4160,-16236,152,-827,58,-265
370,705,751,889,733,0,4180,-16188,92,-801,32,-276
373,699,752,887,737,0,4236,-16224,140,-777,47,-256
376,690,752,885,733,0,4124,-16208,224,-785,71,-232
379,704,752,883,733,0,4284,-16080,224,-809,49,-220
382,701,745,882,734,0,4316,-16176,248,-822,83,-212
385,705,752,891,733,0,4392,-16140,88,-819,90,-184
388,703,752,888,735,0,4352,-16256,-64,-843,93,-195
391,703,752,889,732,0,4268,-16316,88,-867,69,-192
394,701,752,885,735,0,4312,-16152,84,-856,107,-169
397,704,752,883,740,0,4300,-16204,152,-920,86,-163
400,697,753,883,736,0,4300,-16192,132,-898,87,-187
403,699,754,887,742,0,4352,-16208,264,-886,100,-161
406,704,752,882,745,0,4336,-16204,240,-912,84,-153
409,699,752,889,736,0,4324,-16144,144,-924,58,-144
412,704,749,887,739,0,4404,-16176,244,-907,54,-96
415,698,745,886,739,0,4256,-16316,16,-927,40,-94
418,699,752,881,743,0,4324,-16164,280,-942,69,-94
421,699,751,886,740,0,4344,-16036,264,-941,33,-106
424,704,749,885,741,0,4132,-16092,188,-978,20,-92
427,701,745,881,739,0,4256,-16132,368,-988,-16,-90
430,704,745,881,746,0,4156,-16076,380,-1008,-23,-93
433,701,744,891,742,0,4244,-15912,212,-1050,-84,-86
436,704,745,886,742,0,4160,-15852,348,-1097,-95,-92
439,703,746,886,743,0,4220,-16032,348,-1112,-60,-67
442,699,741,889,743,0,4252,-16004,240,-1175,-29,-52
445,704,750,891,747,0,4112,-15960,256,-1203,-35,-61
448,704,734,889,741,0,4136,-16044,168,-1234,-28,-103
451,698,745,890,752,0,4100,-16028,160,-1289,-16,-76
454,703,743,882,741,0,4200,-16068,144,-1318,-28,-79
457,701,747,883,738,0,4236,-16184,-28,-1329,5,-81
460,691,745,887,742,0,4156,-16152,260,-1333,-31,-72
463,703,750,888,734,0,4124,-16232,84,-1321,-67,-63
466,702,749,894,737,0,4048,-16200,40,-1293,-113,-53
469,701,743,880,735,0,4072,-16336,124,-1298,-160,-44
472,700,747,887,736,0,4136,-16336,-24,-1269,-213,-51
475,701,743,884,736,0,4032,-16328,128,-1267,-253,-53
478,703,749,890,735,0,4064,-16260,80,-1268,-275,-22
481,701,747,880,741,0,4172,-16372,36,-1261,-270,-31
484,701,745,885,735,0,4204,-16376,120,-1234,-236,1
487,705,749,890,736,0,4084,-16320,176,-1225,-216,6
490,700,745,886,734,0,4240,-16380,-16,-1183,-178,16
493,702,745,880,737,0,4280,-16384,144,-1176,-163,37
496,697,748,887,735,0,4200,-16240,96,-1137,-168,29
499,695,743,880,737,0,4124,-16312,148,-1121,-176,79
502,697,743,884,735,0,4108,-16224,64,-1127,-174,54
505,700,753,883,739,0,4164,-16304,80,-1108,-177,78
508,698,749,889,742,0,4068,-16232,8,-1128,-157,75
511,699,751,886,737,0,4116,-16224,36,-1123,-158,18
514,699,747,886,739,0,4136,-16196,-24,-1151,-116,21
517,709,745,881,741,0,4144,-16152,-16,-1152,-133,20
520,698,743,887,747,0,4032,-16200,56,-1190,-125,11
523,688,747,889,734,0,4096,-16144,164,-1178,-97,9
526,702,745,884,743,0,4072,-16188,128,-1196,-137,17
529,701,745,886,742,0,4008,-16092,88,-1182,-90,15
532,701,744,880,735,0,3956,-16060,256,-1216,-106,-13
535,699,742,880,741,0,3928,-16048,24,-1204,-121,5
538,698,742,896,739,0,3940,-16140,76,-1195,-131,21
541,700,739,885,741,0,4004,-16136,60,-1187,-137,19
544,699,738,880,740,0,4048,-16088,44,-1175,-123,29
547,703,742,882,743,0,3968,-16168,68,-1179,-83,30
550,704,740,891,741,0,4040,-16080,60,-1177,-99,43
553,703,740,884,739,0,4072,-16108,-32,-1161,-60,36
556,702,742,881,745,0,3960,-16152,52,-1177,-74,49
559,702,743,889,738,0,4056,-16244,-196,-1173,-57,43
562,702,741,887,743,0,3976,-16136,124,-1171,-60,40
565,704,742,886,739,0,4132,-16228,-20,-1167,-35,28
568,701,742,891,745,0,4108,-16276,-24,-1187,-50,28
571,703,746,886,735,0,3988,-16248,0,-1175,-49,24
574,701,745,887,743,0,3984,-16188,-40,-1179,-49,32
577,702,746,885,737,0,4000,-16300,36,-1154,-42,20
580,703,745,891,738,0,3908,-16276,0,-1171,-51,15
583,701,739,896,743,0,4080,-16248,28,-1167,-64,-4
586,702,748,885,734,0,4016,-16264,-4,-1159,-72,-3
589,703,742,886,743,0,3960,-16236,-160,-1153,-61,1
592,693,748,883,734,0,4004,-16316,68,-1131,-77,-14
595,706,743,885,740,0,4088,-16188,68,-1104,-51,-15
598,699,746,882,742,0,3936,-16168,52,-1090,-77,-13
601,712,737,885,736,0,3944,-16188,24,-1102,-34,3
604,699,749,889,734,0,4064,-16128,-44,-1063,-51,-24
607,706,749,883,735,0,3964,-16184,88,-1041,-17,-17
610,702,747,883,735,0,4004,-16292,-32,-1019,-14,-37
613,703,749,881,738,0,4004,-16196,-48,-1013,5,-73
616,702,752,880,733,0,3988,-16232,52,-993,-3,-35
619,705,753,887,733,0,4068,-16188,-84,-978,10,-38
622,704,752,883,739,0,4108,-16264,-84,-968,28,-29
625,701,751,881,736,0,4116,-16132,-72,-915,12,-39
628,700,752,887,735,0,4060,-16232,-144,-954,-12,0
631,703,752,887,741,0,4020,-16120,-72,-939,5,-41
634,702,745,887,741,0,4056,-16256,-88,-933,3,-12
637,699,746,882,735,0,4056,-16300,32,-961,15,-47
640,701,748,882,736,0,4128,-16224,-40,-978,0,-37
643,698,746,882,741,0,4080,-16284,28,-977,-6,-35
646,699,745,883,742,0,4140,-16256,4,-989,20,-38
649,691,745,883,741,0,4136,-16220,-40,-1015,69,-64
652,697,743,890,743,0,4080,-16244,-160,-1024,24,-13
655,698,743,880,737,0,4108,-16188,76,-1018,41,-61
658,697,747,890,739,0,4156,-16264,-24,-1038,-18,-55
661,698,741,880,747,0,4032,-16280,-100,-1058,-10,-75
664,695,739,885,735,0,4072,-16240,-100,-1029,-56,-45
667,693,743,886,746,0,4096,-16204,-120,-1011,-16,-41
670,701,736,885,743,0,4068,-16348,44,-983,45,-61
673,698,741,882,736,0,4080,-16216,12,-988,26,-56
676,697,751,886,741,0,4128,-16280,20,-979,53,-67
679,699,735,883,739,0,4004,-16264,-92,-957,82,-78
682,707,735,883,750,0,4144,-16244,-180,-944,82,-71
685,693,735,886,742,0,4088,-16248,20,-930,83,-46
688,701,735,881,739,0,4084,-16344,-20,-891,64,-5
691,704,739,886,740,0,4192,-16212,-28,-924,111,-28
694,703,742,890,747,0,3988,-16144,24,-908,99,-25
697,704,738,881,737,0,4052,-16192,56,-917,99,-57
700,703,739,882,736,0,4028,-15964,48,-945,35,-32
703,703,739,890,736,0,4164,-16084,8,-883,40,-5
706,699,738,890,738,0,4032,-16128,68,-879,34,12
709,701,738,885,737,0,4044,-16020,104,-915,176,-40
712,706,742,890,734,0,4012,-16120,-64,-968,90,-112
715,702,742,886,727,0,4116,-16056,12,-926,42,-79
718,699,742,883,737,0,4036,-16160,-96,-919,-13,-56
721,701,742,891,737,0,4044,-16100,64,-913,37,-75
724,703,739,882,735,0,3976,-16096,-64,-900,47,-50
727,695,743,890,735,0,3956,-16152,-64,-908,-43,-67
730,701,747,886,740,0,4032,-16264,-108,-912,-12,-91
733,702,747,889,733,0,3980,-16364,36,-914,24,-85
736,702,748,882,735,0,3992,-16212,-152,-885,64,-91
739,699,741,885,733,0,4020,-16240,4,-876,40,-88
742,701,746,887,736,0,4132,-16244,-148,-866,15,-91
745,695,745,883,738,0,4140,-16256,-28,-821,47,-103
748,697,746,881,737,0,4100,-16244,-60,-840,25,-61
751,694,742,887,739,0,4080,-16280,-44,-790,34,-79
754,694,740,906,742,0,4080,-16244,-108,-799,78,-63
757,696,739,882,743,0,4164,-16236,-40,-787,41,-74
760,697,746,891,736,0,4220,-16264,-24,-815,75,-72
763,699,746,887,737,0,4156,-16216,-20,-797,41,-74
766,699,739,880,745,0,4116,-16216,-20,-806,30,-33
769,701,745,883,741,0,4144,-16252,-72,-785,-1,-48
772,697,737,886,738,0,4160,-16228,100,-822,-24,-41
775,698,741,883,739,0,4148,-16228,28,-842,40,13
778,703,748,891,736,0,4172,-16224,40,-862,81,11
781,698,749,881,741,0,3972,-16212,0,-837,38,-44
784,695,740,887,733,0,4032,-16284,4,-866,22,-25
787,699,742,883,735,0,4160,-16392,-24,-870,2,-47
790,698,745,888,737,0,4088,-16392,68,-865,8,-20
793,702,749,883,736,0,4116,-16364,-132,-843,-49,-24
796,703,742,886,736,0,4132,-16344,-124,-839,-24,-23
799,702,748,884,733,0,4116,-16172,40,-834,6,-1
802,703,743,890,736,0,4016,-16312,72,-874,2,-14
805,702,743,884,739,0,4116,-16292,16,-845,9,23
808,703,746,881,737,0,4012,-16208,-92,-849,-10,-14
811,706,747,886,747,0,4068,-16284,80,-803,14,-8
814,707,740,881,738,0,4044,-16208,-44,-792,-75,24
817,697,746,878,740,0,4084,-16256,-60,-834,-130,-38
820,703,737,880,740,0,4124,-16232,-120,-731,53,12
823,701,740,887,742,0,4052,-16256,-176,-770,-11,-46
826,699,738,880,740,0,4072,-16240,-68,-822,114,-106
829,697,739,882,743,0,4068,-16164,-28,-845,134,-161
832,688,735,896,746,0,3828,-16200,-32,-831,-17,-145
835,698,742,880,739,0,4064,-16264,164,-783,208,-96
838,701,732,886,741,0,4132,-16096,32,-743,408,-96
841,704,733,882,742,0,4028,-16032,64,-787,406,-138
844,691,729,880,741,0,4036,-16040,136,-841,271,-138
847,697,734,880,742,0,3992,-16012,88,-822,457,-205
850,689,735,873,743,0,3872,-16000,80,-850,417,-231
853,694,736,883,739,0,3772,-16012,52,-794,165,-204
856,698,736,882,741,0,3920,-16216,124,-765,68,-102
859,695,740,883,736,0,3960,-16028,64,-777,78,-127
862,702,736,886,739,0,3992,-15992,4,-809,110,-168
865,702,738,883,739,0,3960,-16048,-32,-817,-36,-179
868,701,739,883,742,0,3912,-16000,0,-850,-45,-210
871,701,739,887,741,0,3808,-16140,-20,-862,-59,-214
874,698,738,883,741,0,3880,-16152,-44,-845,-4,-210
877,703,739,885,735,0,3856,-16216,76,-829,80,-198
880,702,740,885,736,0,4008,-16164,144,-795,189,-169
883,700,743,880,727,0,4004,-16168,148,-881,246,-212
886,716,746,881,739,0,3740,-16236,120,-893,179,-269
889,705,736,885,735,0,3804,-16172,44,-931,107,-318
892,701,741,882,743,0,3692,-16236,20,-938,30,-321
895,703,746,885,736,0,3708,-16304,-152,-886,-88,-289
898,700,742,879,738,0,3936,-16188,-92,-874,-116,-249
901,698,742,881,737,0,3960,-16400,48,-842,-85,-266
904,700,745,887,741,0,3872,-16352,68,-846,24,-275
907,703,743,880,738,0,3856,-16224,104,-852,40,-269
910,703,745,887,738,0,3908,-16208,128,-846,10,-288
913,703,748,885,741,0,3856,-16252,120,-826,8,-291
916,704,750,882,733,0,3972,-16248,124,-776,94,-305
919,700,746,880,739,0,3880,-16232,240,-756,98,-318
922,705,747,891,735,0,3972,-16160,212,-765,131,-319
925,701,750,891,734,0,3940,-16160,168,-805,133,-357
928,704,748,885,727,0,3932,-16116,264,-811,141,-352
931,704,747,886,730,0,3956,-15960,116,-836,150,-388
934,705,750,892,729,0,3808,-16024,156,-844,164,-389
937,706,752,891,729,0,3756,-16124,164,-883,122,-419
940,705,752,886,733,0,3784,-16016,-180,-858,75,-408
943,706,752,885,731,0,3892,-16020,64,-879,58,-417
946,704,747,887,729,0,4060,-16056,112,-912,74,-433
949,704,747,887,732,0,3884,-16044,24,-933,7,-450
952,709,752,884,731,0,3856,-16008,4,-924,-60,-438
955,710,752,888,732,0,3864,-16072,28,-951,-49,-450
958,707,749,890,727,0,3972,-16064,72,-930,-46,-453
961,705,752,889,731,0,3848,-16096,-112,-953,-86,-487
964,701,747,888,729,0,4036,-16204,128,-933,-166,-488
967,704,752,888,728,0,3944,-16200,24,-953,-226,-504
970,706,745,887,729,0,4180,-16160,184,-940,-141,-487
973,704,750,891,731,0,4064,-16204,216,-937,-101,-518
976,703,752,885,735,0,4092,-16028,136,-969,-68,-494
979,707,752,884,731,0,4096,-16040,88,-955,-173,-530
982,703,747,890,729,0,3956,-16236,88,-952,-300,-509
985,705,752,884,735,0,3952,-16172,-4,-968,-307,-542
988,707,750,885,733,0,4204,-16204,32,-947,-306,-499
991,706,749,882,735,0,4176,-16144,108,-896,-313,-525
994,709,752,880,727,0,4124,-16188,124,-916,-326,-519
997,706,747,889,726,0,4236,-16104,-84,-900,-268,-517
1000,720,752,881,734,0,4180,-16032,200,-907,-221,-530
1003,709,752,884,730,0,4180,-16136,16,-896,-210,-537
1006,706,747,883,733,0,4032,-16100,20,-886,-265,-491
1009,704,751,883,730,0,4136,-16312,92,-869,-299,-478
1012,707,749,890,732,0,4356,-16148,0,-841,-192,-482
1015,710,746,888,730,0,4164,-16108,8,-883,-168,-455
1018,708,752,886,729,0,4164,-16172,84,-875,-230,-466
1021,706,752,889,733,0,4160,-16212,208,-883,-261,-441
1024,704,747,885,736,0,4292,-16124,92,-900,-267,-474
1027,705,747,886,730,0,4268,-16060,20,-884,-164,-469
1030,704,747,883,734,0,4316,-16260,172,-950,-291,-527
1033,708,745,886,741,0,4280,-16152,4,-986,-336,-582
1036,720,752,889,727,0,4184,-16252,40,-956,-451,-519
1039,701,749,887,729,0,4288,-16140,-104,-942,-289,-547
1042,699,749,883,729,0,4324,-16212,-96,-964,-272,-593
1045,704,749,887,727,0,4316,-16072,72,-961,-271,-539
1048,702,743,883,723,0,4212,-16200,-116,-927,-344,-552
1051,708,747,887,734,0,4304,-16252,72,-904,-335,-516
1054,705,752,891,729,0,4276,-16152,-8,-899,-371,-463
1057,711,752,887,731,0,4272,-16168,56,-891,-333,-493
1060,708,749,891,733,0,4404,-16124,96,-905,-353,-515
1063,710,752,887,737,0,4392,-16180,4,-932,-222,-503
1066,704,749,887,735,0,4280,-16060,-40,-963,-178,-524
1069,708,750,891,732,0,4296,-16072,8,-872,-225,-461
1072,710,750,894,733,0,4412,-16164,188,-847,-267,-377
1075,702,751,884,731,0,4380,-16088,124,-874,-195,-364
1078,704,751,886,737,0,4532,-16156,40,-873,-114,-351
1081,704,750,883,739,0,4236,-16216,156,-839,-283,-360
1084,710,741,889,742,0,4164,-16256,-56,-801,-648,-268
1087,708,742,884,735,0,4492,-16240,56,-878,-423,-355
1090,710,743,888,739,0,4284,-16120,24,-953,-291,-425
1093,715,750,886,736,0,4400,-16168,24,-958,-197,-426
1096,705,746,881,733,0,4400,-16360,52,-887,-264,-367
1099,706,743,887,730,0,4400,-16300,72,-831,-173,-345
1102,704,742,889,735,0,4488,-16164,184,-818,-96,-233
1105,688,742,882,734,0,4368,-16288,88,-794,-95,-229
1108,698,741,883,738,0,4440,-16264,-164,-800,-263,-183
1111,698,746,880,742,0,4540,-16212,148,-815,-285,-217
1114,701,747,890,741,0,4472,-16176,108,-841,-297,-227
1117,702,743,882,740,0,4364,-16184,28,-870,-385,-282
1120,701,747,889,748,0,4652,-16156,-32,-860,-337,-250
1123,704,740,888,741,0,4556,-16096,-40,-860,-349,-228
1126,688,739,885,742,0,4624,-16084,76,-832,-220,-216
1129,701,738,882,735,0,4632,-16004,108,-886,-189,-249
1132,701,741,887,743,0,4556,-16100,64,-903,-110,-242
1135,705,745,889,736,0,4456,-16128,68,-915,-108,-244
1138,704,736,887,731,0,4412,-16164,36,-899,-66,-236
1141,699,737,880,736,0,4496,-16188,-28,-916,1,-217
1144,702,735,882,737,0,4392,-16196,-4,-888,-59,-194
1147,705,739,887,745,0,4404,-16296,0,-896,-127,-178
1150,701,737,882,739,0,4480,-16328,96,-904,-152,-151
1153,698,737,883,739,0,4316,-16252,180,-929,-279,-138
1156,698,742,881,735,0,4292,-16160,152,-986,-338,-149
1159,702,746,881,742,0,4480,-16164,8,-1014,-294,-120
1162,697,746,882,749,0,4456,-16292,136,-1045,-350,-107
1165,695,741,885,747,0,4512,-16208,96,-1070,-243,-122
1168,695,742,883,741,0,4480,-16180,12,-1094,-142,-149
1171,698,741,883,750,0,4408,-16068,240,-1100,-170,-142
1174,695,740,885,750,0,4344,-16180,-16,-1147,-111,-149
1177,698,738,880,748,0,4328,-16112,-4,-1125,-155,-158
1180,698,741,883,740,0,4400,-16224,72,-1179,-116,-164
1183,693,739,878,746,0,4256,-16276,152,-1058,-193,-63
1186,697,737,880,740,0,4352,-16064,8,-1043,-169,-78
1189,697,742,883,743,0,4272,-16164,112,-1025,-177,-21
1192,695,739,882,740,0,4304,-16116,264,-1014,-160,-18
1195,697,742,883,742,0,4328,-16212,28,-982,-264,20
1198,703,737,882,740,0,4744,-15988,-108,-1074,-169,-41
1201,695,737,880,747,0,4196,-15956,64,-1119,-296,-69
1204,699,738,875,737,0,4460,-16004,160,-1154,30,-193
1207,697,736,880,738,0,4584,-15988,12,-1249,16,-240
1210,697,742,882,743,0,4296,-16060,180,-1197,325,-251
1213,703,741,887,749,0,4212,-16064,-184,-1150,172,-248
1216,704,740,880,739,0,4204,-16028,-84,-1231,419,-287
1219,703,739,887,736,0,4220,-16056,132,-1156,361,-255
1222,704,743,883,737,0,4212,-16048,200,-1114,206,-232
1225,700,742,889,735,0,4040,-16084,-28,-1083,130,-248
1228,703,741,881,739,0,4000,-16112,48,-1061,-97,-222
1231,707,746,891,739,0,4016,-16100,-40,-1013,-205,-168
1234,704,740,882,737,0,4084,-16184,-260,-983,-179,-163
1237,703,743,883,741,0,4036,-16120,-304,-1017,-301,-199
1240,708,746,880,738,0,4152,-16212,-96,-1029,-165,-207
1243,704,749,880,738,0,4060,-16300,-56,-923,-87,-147
1246,704,745,883,745,0,4028,-16240,-152,-901,-53,-123
1249,704,745,880,739,0,4176,-16256,44,-874,52,-145
1252,705,744,885,737,0,4064,-16324,-12,-837,171,-152
1255,702,750,882,738,0,3968,-16360,28,-776,-9,-38
1258,704,743,882,735,0,4256,-16264,-376,-784,42,-98
1261,703,743,880,739,0,4092,-16220,-108,-805,-85,-135
1264,700,747,882,735,0,4012,-16224,-108,-805,-166,-136
1267,701,742,880,739,0,4136,-16248,-64,-774,-230,-99
1270,697,751,880,734,0,4248,-16080,-84,-761,-146,-143
1273,691,752,880,741,0,4192,-16232,-28,-726,-20,-111
1276,699,743,883,738,0,4304,-16068,-120,-691,41,-106
1279,700,752,885,738,0,4256,-16092,4,-687,45,-124
1282,702,744,880,737,0,4056,-16116,28,-674,47,-126
1285,703,742,881,742,0,4232,-16112,20,-617,171,-136
1288,704,746,885,738,0,4064,-15992,12,-619,125,-132
1291,703,743,881,737,0,4168,-16104,32,-597,137,-168
1294,705,742,882,737,0,4108,-16012,-104,-617,133,-141
1297,702,740,881,737,0,4108,-15956,96,-546,151,-167
1300,703,737,884,734,0,4128,-16036,12,-522,129,-157
1303,695,739,883,739,0,4048,-15988,-28,-549,132,-134
1306,704,741,886,738,0,4140,-16004,56,-540,147,-164
1309,702,742,880,742,0,4112,-15996,12,-524,141,-188
1312,721,739,880,745,0,4000,-16052,144,-516,121,-163
1315,702,738,880,739,0,4072,-16072,80,-514,90,-155
1318,704,747,886,741,0,4188,-16068,40,-525,125,-193
1321,704,745,890,738,0,4036,-16120,120,-533,73,-191
1324,707,747,882,738,0,4108,-16048,-48,-552,30,-206
1327,704,749,903,744,0,4056,-16172,32,-539,-28,-189
1330,705,752,885,742,0,4152,-16176,-84,-525,-131,-186
1333,702,748,891,735,0,4232,-16164,44,-550,-168,-261
1336,706,750,883,734,0,3996,-16208,212,-511,-407,-221
1339,703,747,886,737,0,4304,-16104,-64,-580,-263,-242
1342,703,750,883,734,0,4104,-16112,92,-551,-295,-214
1345,706,747,886,733,0,4268,-16204,56,-545,-267,-248
1348,704,746,880,742,0,4208,-16112,4,-612,-258,-289
1351,702,749,883,736,0,4208,-16148,84,-617,-221,-284
1354,704,750,881,737,0,4248,-16152,220,-617,-195,-301
1357,702,752,883,736,0,4188,-16276,-24,-628,-218,-291
1360,704,752,886,737,0,4312,-16252,60,-622,-260,-272
1363,706,754,882,739,0,4352,-16196,116,-629,-287,-292
1366,704,755,880,746,0,4300,-16092,192,-680,-329,-337
1369,706,752,882,741,0,4292,-16136,204,-683,-435,-324
1372,693,741,881,731,0,4532,-15980,252,-696,-332,-288
1375,702,752,880,737,0,4336,-16056,320,-731,-304,-298
1378,707,748,880,734,0,4336,-16124,296,-754,-251,-321
1381,705,757,884,739,0,4464,-16164,196,-769,-243,-303
1384,700,747,886,735,0,4416,-16128,224,-800,-196,-316
1387,699,750,886,737,0,4396,-16036,164,-809,-143,-315
1390,703,746,886,738,0,4448,-15972,428,-835,31,-341
1393,703,742,882,739,0,4168,-16176,444,-867,-204,-410
1396,693,751,891,739,0,4312,-16160,12,-809,-438,-315
1399,698,743,882,737,0,4396,-16088,272,-828,-414,-284
1402,704,745,882,737,0,4384,-16136,176,-789,-428,-286
1405,703,743,883,733,0,4488,-15976,96,-816,-395,-264
1408,701,742,888,738,0,4476,-15996,216,-839,-359,-269
1411,704,740,887,732,0,4424,-16168,268,-860,-357,-279
1414,703,743,890,735,0,4420,-16144,40,-826,-324,-231
1417,705,741,894,735,0,4460,-16124,80,-884,-326,-270
1420,704,746,898,735,0,4524,-16040,28,-903,-327,-274
1423,703,745,883,733,0,4552,-16160,172,-929,-270,-273
1426,704,743,886,737,0,4480,-16160,324,-918,-320,-286
1429,706,746,891,734,0,4564,-16056,24,-940,-373,-279
1432,702,747,889,731,0,4656,-16152,96,-973,-430,-252
1435,705,746,887,735,0,4664,-16136,76,-1023,-368,-226
1438,705,746,887,737,0,4620,-16096,156,-1078,-407,-278
1441,702,742,887,720,0,4664,-16200,204,-1130,-423,-257
1444,702,751,886,737,0,4508,-16100,148,-1161,-366,-281
1447,700,751,887,734,0,4472,-16168,48,-1203,-466,-253
1450,708,758,889,735,0,4552,-16268,72,-1150,-351,-229
1453,705,749,880,739,0,4516,-16232,-88,-1193,-413,-222
1456,699,751,880,739,0,4572,-16136,64,-1183,-401,-203
1459,703,752,881,742,0,4560,-16188,152,-1169,-344,-191
1462,699,750,883,733,0,4592,-16180,80,-1167,-345,-173
1465,700,746,880,740,0,4568,-16236,72,-1174,-294,-161
1468,702,741,882,742,0,4368,-16224,24,-1144,-304,-147
1471,699,748,884,736,0,4432,-16136,152,-1127,-337,-121
1474,715,746,883,734,0,4460,-16276,60,-1100,-365,-128
1477,699,746,891,735,0,4492,-16320,-96,-1076,-415,-135
1480,701,745,891,737,0,4428,-16368,44,-1101,-445,-140
1483,704,749,882,735,0,4368,-16160,224,-1060,-436,-271
1486,704,746,883,733,0,4452,-15844,80,-1162,-612,-185
1489,704,748,883,740,0,4812,-16048,8,-1058,-402,-120
1492,704,741,886,735,0,4400,-16188,224,-1004,-444,-98
1495,707,747,887,747,0,4580,-16104,120,-1029,-385,-77
1498,701,741,887,737,0,4516,-16132,16,-979,-357,-96
1501,698,743,890,737,0,4280,-16188,40,-937,-389,-41
1504,705,737,886,749,0,4416,-16208,-68,-885,-387,-64
1507,704,737,885,740,0,4384,-16228,32,-913,-368,-70
1510,703,739,884,746,0,4372,-16068,-48,-899,-444,-39
1513,700,737,885,742,0,4488,-15996,-80,-907,-442,-44
1516,704,741,886,735,0,4536,-15984,-36,-918,-454,-18
1519,704,737,891,738,0,4628,-16080,4,-897,-394,-17
1522,703,738,891,741,0,4508,-16140,0,-935,-378,-13
1525,699,741,887,743,0,4524,-16008,-72,-941,-324,-1
1528,701,736,883,745,0,4452,-16072,40,-947,-293,2
1531,699,733,880,746,0,4516,-16212,-120,-929,-265,18
1534,698,737,883,746,0,4524,-16160,-12,-952,-240,20
1537,698,737,886,741,0,4464,-16200,-56,-1007,-242,5
1540,698,737,882,747,0,4308,-16136,-188,-986,-237,25
1543,697,736,883,749,0,4400,-16168,-104,-963,-235,34
1546,699,742,892,748,0,4436,-16224,-60,-971,-243,30
1549,701,735,882,748,0,4324,-16160,-72,-962,-229,36
1552,699,738,880,749,0,4432,-16232,112,-957,-238,44
1555,698,741,883,743,0,4364,-16364,28,-951,-259,33
1558,688,738,883,739,0,4412,-16616,-264,-882,-384,74
1561,704,743,887,742,0,4568,-16300,-40,-890,-294,75
1564,704,747,886,741,0,4296,-16204,180,-916,-310,51
1567,707,743,883,740,0,4232,-16096,216,-919,-320,60
1570,695,746,882,740,0,4288,-16144,88,-902,-273,79
1573,700,745,885,737,0,4352,-16112,136,-899,-187,55
1576,698,741,888,741,0,4280,-16136,88,-887,-157,72
1579,701,745,891,739,0,4336,-16232,108,-811,-124,67
1582,695,740,889,737,0,4364,-16144,-8,-826,-156,64
1585,702,739,889,737,0,4296,-16144,152,-820,-202,92
1588,704,746,890,737,0,4380,-16124,96,-800,-232,67
1591,709,741,892,737,0,4340,-16196,-20,-777,-249,98
1594,705,749,892,737,0,4216,-16136,16,-770,-260,49
1597,702,742,886,738,0,4336,-16164,96,-756,-283,78
1600,701,741,886,738,0,4372,-16184,92,-760,-227,79
1603,698,741,890,737,0,4308,-16140,84,-755,-229,86
1606,701,759,885,743,0,4384,-16096,92,-788,-207,89
1609,699,741,889,735,0,4348,-16180,152,-769,-199,81
1612,699,738,885,742,0,4348,-16140,100,-795,-166,76
1615,699,739,886,737,0,4464,-16236,252,-793,-151,97
1618,701,741,886,739,0,4460,-16148,184,-781,-122,90
1621,700,738,891,758,0,4440,-16232,140,-804,-106,91
1624,702,737,884,738,0,4440,-16136,-48,-777,-72,109
1627,701,737,886,740,0,4444,-16132,140,-794,-104,135
1630,704,737,885,737,0,4368,-16196,112,-810,-104,126
1633,702,736,887,742,0,4348,-16232,36,-829,-157,124
1636,702,734,886,743,0,4376,-16132,172,-832,-162,142
1639,705,743,883,739,0,4420,-16088,112,-876,-142,142
1642,704,738,887,739,0,4396,-15972,100,-875,-146,152
1645,705,738,887,735,0,4396,-16064,280,-893,-174,158
1648,706,743,891,735,0,4360,-16208,40,-923,-142,158
1651,704,741,884,738,0,4328,-16144,-156,-926,-99,146
1654,704,741,884,736,0,4388,-16268,160,-914,-109,134
1657,704,747,888,737,0,4292,-16108,92,-921,-163,141
1660,703,741,893,738,0,4312,-16120,80,-927,-162,133
1663,702,742,881,738,0,4304,-16104,56,-960,-219,151
1666,706,744,882,742,0,4288,-16016,72,-979,-231,152
1669,702,746,895,738,0,4216,-16168,192,-971,-241,158
1672,705,750,891,738,0,4192,-16144,40,-975,-252,125
1675,702,741,885,735,0,4240,-16088,148,-982,-258,119
1678,706,746,886,735,0,4288,-16076,204,-984,-263,164
1681,704,746,886,734,0,4216,-16112,64,-1014,-287,132
1684,704,746,890,733,0,4312,-16120,124,-984,-273,142
1687,703,748,892,734,0,4268,-16144,304,-985,-286,130
1690,704,742,890,734,0,4244,-16116,12,-1015,-268,119
1693,706,750,893,730,0,4428,-16064,128,-994,-307,111
1696,706,748,891,734,0,4236,-16060,256,-1028,-331,118
1699,704,747,891,738,0,4388,-16068,120,-1053,-357,102
1702,705,750,894,737,0,4420,-16184,20,-1037,-318,120
1705,706,752,890,734,0,4320,-16088,160,-1056,-351,137
1708,699,751,893,735,0,4448,-16108,112,-1073,-315,111
1711,703,749,891,737,0,4464,-16052,40,-1084,-297,116
1714,699,748,891,739,0,4376,-16136,156,-1100,-238,150
1717,709,747,885,735,0,4272,-16136,156,-1118,-238,131
1720,701,743,893,739,0,4364,-16212,44,-1109,-230,117
1723,701,741,887,734,0,4292,-16224,168,-1111,-228,145
1726,694,746,891,737,0,4316,-16108,-28,-1122,-249,139
1729,705,746,893,737,0,4456,-16304,56,-1131,-250,136
1732,703,742,890,741,0,4408,-16112,96,-1126,-262,165
1735,688,743,889,744,0,4440,-16212,16,-1180,-261,172
1738,688,740,890,735,0,4576,-16224,32,-1186,-200,154
1741,701,743,889,741,0,4420,-16140,44,-1209,-227,153
1744,699,742,893,749,0,4288,-16208,144,-1216,-190,182
1747,701,739,891,742,0,4392,-16120,0,-1212,-226,182
1750,704,747,892,745,0,4376,-16116,24,-1201,-225,188
1753,698,739,889,742,0,4396,-16124,-92,-1230,-218,185
1756,703,738,885,741,0,4396,-16152,12,-1206,-207,179
1759,699,740,891,743,0,4352,-16136,100,-1181,-211,190
1762,705,742,887,739,0,4388,-16088,140,-1206,-167,210
1765,702,740,892,749,0,4380,-16108,80,-1201,-166,201
1768,699,744,887,744,0,4384,-16136,72,-1205,-172,184
1771,701,743,890,742,0,4260,-16176,156,-1186,-170,222
1774,705,743,887,739,0,4368,-16136,32,-1174,-206,227
1777,699,742,893,737,0,4332,-16196,20,-1204,-203,235
1780,703,742,890,739,0,4432,-16124,-36,-1164,-256,242
1783,703,743,885,741,0,4288,-16192,-44,-1190,-253,253
1786,702,746,887,742,0,4288,-16112,68,-1155,-251,257
1789,697,741,891,739,0,4236,-16152,-44,-1176,-194,275
1792,697,740,887,751,0,4380,-16168,72,-1136,-231,263
1795,701,742,884,729,0,4236,-16112,-132,-1139,-215,262
1798,699,746,883,741,0,4244,-16156,-88,-1121,-189,286
1801,689,745,882,741,0,4232,-16244,40,-1108,-187,269
1804,703,747,886,738,0,4308,-16232,12,-1092,-190,286
1807,701,744,882,743,0,4096,-16360,60,-1055,-192,281
1810,704,748,883,753,0,4076,-16352,196,-1063,-197,283
1813,702,743,885,746,0,4108,-16280,216,-1014,-190,275
1816,699,748,889,739,0,4128,-16176,-80,-1000,-213,289
1819,695,741,886,737,0,4168,-16136,76,-977,-207,276
1822,703,743,885,742,0,4124,-16204,96,-952,-234,290
1825,703,743,885,738,0,4056,-16128,56,-951,-209,297
1828,705,743,887,741,0,4184,-16068,-12,-948,-215,283
1831,702,750,894,742,0,4200,-16080,-12,-951,-210,272
1834,706,739,890,735,0,4204,-16052,-96,-979,-230,273
1837,700,739,885,742,0,4124,-16044,156,-989,-201,269
1840,702,746,889,741,0,4156,-16208,148,-1044,-210,253
1843,710,741,891,742,0,4100,-16060,-60,-1096,-156,237
1846,704,746,894,736,0,4152,-16076,24,-1118,-152,224
1849,702,744,882,738,0,4184,-16040,-120,-1180,-166,188
1852,704,742,893,739,0,4076,-16080,-112,-1198,-150,226
1855,702,743,887,738,0,4108,-16208,-80,-1197,-155,229
1858,699,742,886,739,0,4072,-16180,-88,-1187,-114,225
1861,701,746,884,742,0,4136,-16168,-152,-1192,-185,199
1864,700,746,887,741,0,4264,-16164,-120,-1219,-230,190
1867,704,746,890,747,0,4136,-16076,-112,-1195,-343,163
1870,703,741,883,742,0,4044,-16056,-68,-1163,-265,148
1873,699,746,887,741,0,4112,-16120,-180,-1191,-228,123
1876,701,748,890,742,0,4080,-16104,36,-1206,-117,123
1879,701,742,886,740,0,4048,-16152,-60,-1223,-98,116
1882,701,745,883,738,0,4096,-16208,24,-1210,-95,117
1885,704,747,881,739,0,3988,-16144,68,-1206,-97,109
1888,701,741,885,742,0,3988,-16148,32,-1217,-166,84
1891,702,749,890,739,0,3952,-16236,72,-1178,-241,126
1894,702,747,894,736,0,3912,-16128,56,-1192,-246,87
1897,704,752,889,734,0,4020,-16104,4,-1191,-283,73
1900,704,751,895,735,0,3920,-16080,-84,-1194,-301,56
1903,707,749,891,735,0,4048,-16164,52,-1169,-274,32
1906,705,748,889,735,0,4184,-16264,96,-1150,-222,27
1909,690,745,887,740,0,4096,-16080,-156,-1124,-217,52
1912,704,753,888,738,0,4160,-16264,-68,-1121,-208,-27
1915,697,742,885,734,0,4140,-16140,-16,-1104,-183,-17
1918,703,749,887,732,0,4052,-16148,-104,-1103,-160,-43
1921,705,750,892,731,0,3980,-16088,-104,-1129,-152,-59
1924,702,749,885,736,0,3864,-16180,-76,-1134,-164,-55
1927,706,752,889,731,0,3992,-16108,-212,-1152,-177,-59
1930,698,752,891,735,0,4104,-16116,-120,-1144,-180,-41
1933,697,748,890,738,0,4072,-16128,-136,-1144,-178,-52
1936,702,747,890,735,0,4040,-16184,-180,-1111,-203,-34
1939,707,751,890,735,0,4156,-16244,-24,-1092,-184,-39
1942,704,750,884,735,0,4084,-16212,-144,-1085,-169,-56
1945,703,751,887,736,0,4104,-16316,-252,-1095,-137,-31
1948,709,752,885,735,0,4200,-16260,-144,-1092,-148,-41
1951,704,747,887,735,0,4292,-16308,-180,-1107,-135,-73
1954,705,751,887,738,0,4032,-16308,-224,-1137,-164,-91
1957,708,749,890,737,0,4156,-16280,-108,-1122,-118,-82
1960,704,750,883,734,0,4084,-16248,-208,-1123,-117,-74
1963,706,745,889,734,0,4104,-16312,-108,-1105,-109,-89
1966,704,749,890,736,0,4176,-16344,-212,-1104,-95,-111
1969,704,747,887,736,0,4252,-16380,-152,-1079,-87,-103
1972,706,747,887,733,0,4152,-16336,-144,-1088,-65,-127
1975,714,752,885,731,0,4236,-16388,-188,-1060,-76,-113
1978,704,758,890,736,0,4024,-16436,-232,-1055,-75,-130
1981,704,750,891,730,0,4088,-16448,-228,-1024,-83,-145
1984,706,749,885,733,0,4100,-16552,-176,-983,-50,-120
1987,709,755,891,739,0,4180,-16348,-180,-978,-77,-142
1990,708,751,886,731,0,4168,-16484,-376,-938,-75,-148
1993,704,750,892,738,0,4336,-16412,-192,-944,-61,-135
1996,702,749,892,735,0,4200,-16364,-184,-930,-34,-112
1999,705,746,885,739,0,4236,-16416,-140,-897,-30,-128
2002,702,746,889,734,0,4244,-16392,-164,-886,-13,-135
2005,702,747,884,735,0,4200,-16384,-316,-883,7,-129
2008,703,746,893,736,0,4228,-16356,-240,-845,35,-122
2011,703,745,889,737,0,4244,-16416,-236,-839,51,-104
2014,705,747,890,729,0,4232,-16320,-184,-818,30,-120
2017,703,751,887,741,0,4228,-16348,-164,-788,35,-95
2020,701,752,893,738,0,4272,-16308,-124,-773,42,-100
2023,703,747,886,738,0,4268,-16332,-100,-783,90,-95
2026,703,745,894,737,0,4256,-16276,-200,-748,86,-70
2029,703,746,891,735,0,4224,-16368,-120,-715,91,-46
2032,704,742,889,742,0,4300,-16340,-96,-695,100,-63
2035,691,736,885,741,0,4212,-16196,52,-686,118,-44
2038,698,738,885,741,0,4284,-16336,-164,-623,135,-49
2041,703,743,889,742,0,4256,-16296,-220,-614,123,-33
2044,701,735,887,750,0,4228,-16300,-264,-568,138,-44
2047,695,736,890,749,0,4292,-16224,-124,-543,130,-47
2050,701,742,886,750,0,4156,-16340,-152,-504,145,-39
2053,699,735,883,746,0,4260,-16216,16,-486,145,-45
2056,700,740,885,749,0,4228,-16200,-32,-439,180,-3
2059,698,731,882,751,0,4404,-16284,-48,-402,170,-35
2062,697,737,887,751,0,4100,-16184,-20,-373,176,-24
2065,692,721,886,752,0,4160,-16076,108,-366,185,-31
2068,697,736,890,751,0,4200,-16092,156,-370,222,-16
2071,704,739,890,745,0,4312,-16088,72,-353,150,-9
2074,709,735,892,742,0,4220,-15996,84,-369,113,-15
2077,702,731,893,743,0,4320,-16060,152,-396,101,-30
2080,695,740,895,738,0,4380,-16072,76,-424,107,-46
2083,704,747,897,739,0,4336,-15952,272,-472,142,-11
2086,704,751,884,739,0,4328,-16080,260,-500,165,-25
2089,717,752,889,737,0,4328,-16016,148,-551,152,-20
2092,703,752,887,741,0,4384,-16056,124,-601,154,-11
2095,705,750,891,743,0,4284,-16076,204,-694,124,-2
2098,705,751,885,739,0,4368,-16148,116,-746,74,-2
2101,702,752,886,743,0,4328,-16084,124,-838,29,2
2104,704,752,887,742,0,4356,-16144,128,-869,2,-1
2107,705,752,883,745,0,4308,-16212,300,-940,-13,19
2110,705,753,890,747,0,4428,-16160,244,-969,-38,28
2113,699,772,889,740,0,4292,-16232,56,-1020,-44,19
2116,705,756,896,739,0,4300,-16356,-32,-1046,-31,43
2119,703,756,886,738,0,4364,-16336,184,-1098,-55,23
2122,696,758,881,745,0,4300,-16372,-68,-1121,-93,32
2125,695,756,883,743,0,4324,-16332,4,-1138,-60,4
2128,698,766,884,741,0,4224,-16388,16,-1181,-72,26
2131,699,752,881,749,0,4292,-16444,-12,-1158,-59,9
2134,703,755,883,742,0,4380,-16288,-152,-1153,-16,22
2137,700,750,880,742,0,4292,-16232,-72,-1147,25,17
2140,700,752,882,742,0,4164,-16300,0,-1136,76,-4
2143,699,743,883,746,0,4248,-16316,-48,-1099,120,16
2146,695,745,880,744,0,4256,-16300,-8,-1065,129,23
2149,693,737,880,742,0,4120,-16288,0,-1036,183,-4
2152,695,736,885,748,0,4216,-16124,-128,-986,222,18
2155,694,736,883,746,0,4116,-16000,-100,-965,234,18
2158,695,741,883,742,0,4136,-16172,0,-918,241,24
2161,696,738,880,746,1,4232,-16120,-100,-877,284,43
2164,690,744,880,748,0,4180,-16008,-60,-867,296,25
2167,695,737,880,746,0,4088,-15980,-28,-833,284,8
2170,697,739,887,741,0,4072,-15952,-64,-793,286,15
2173,693,740,882,740,3,4056,-15992,-108,-796,308,2
2176,695,744,885,738,1,4024,-15952,-152,-745,309,13
2179,694,747,886,740,1,4048,-16060,-228,-734,319,25
2182,702,752,886,737,2,4132,-15936,-244,-714,351,23
2185,699,750,883,738,5,3976,-16052,-100,-698,319,20
2188,699,750,887,738,0,4060,-16000,-172,-671,319,3
2191,698,741,886,741,0,4032,-16032,-108,-670,276,-20
2194,701,751,887,739,1,3980,-16068,-308,-695,244,-25
2197,698,747,891,738,2,3956,-16124,-228,-655,231,-16
2200,704,749,891,737,8,4056,-16064,-316,-688,198,-53
2203,710,750,891,739,5,4056,-16124,-160,-687,214,-25
2206,705,742,894,736,2,3964,-16064,-128,-643,187,-34
2209,702,747,883,738,1,4168,-16040,-96,-650,233,-21
2212,709,743,891,738,4,3992,-16064,-120,-643,122,-34
2215,708,742,886,745,6,3984,-16012,-100,-628,84,-13
2218,707,739,887,737,2,4004,-16100,8,-613,-9,-26
2221,706,746,893,739,6,4068,-16048,0,-601,80,-30
2224,710,745,890,739,9,4168,-15996,-4,-609,86,-36
2227,704,735,887,741,2,4052,-16020,88,-596,113,-48
2230,704,744,889,738,5,3972,-16028,108,-561,133,-39
2233,704,740,891,736,4,4056,-16076,-24,-546,129,-68
2236,705,742,887,741,1,4036,-16076,-28,-560,136,-43
2239,707,745,889,742,5,4184,-16112,88,-527,129,-71
2242,707,744,890,739,2,4176,-16112,8,-543,112,-71
2245,710,741,889,739,4,4152,-16124,124,-516,162,-97
2248,710,747,890,741,5,4100,-16116,-128,-518,145,-116
2251,709,749,891,740,7,4080,-16176,80,-523,150,-120
2254,707,747,887,741,3,4028,-16184,-16,-490,106,-121
2257,704,746,890,739,5,4048,-16224,100,-496,96,-116
2260,702,742,886,735,5,3952,-16152,116,-451,80,-119
2263,704,741,891,736,6,4072,-16104,176,-461,95,-105
2266,701,741,887,734,6,3996,-16080,184,-453,95,-121
2269,691,742,887,733,9,4108,-16068,-4,-474,114,-91
2272,702,746,891,741,10,4204,-16060,164,-506,94,-117
2275,702,741,890,737,7,4152,-16124,156,-566,78,-105
2278,702,746,891,737,10,4252,-16176,-92,-651,68,-85
2281,703,752,883,738,15,4120,-16292,-76,-717,38,-160
2284,706,744,883,737,13,4180,-16220,-32,-721,136,-136
2287,703,739,887,732,9,4180,-16312,-284,-725,136,-133
2290,702,742,889,736,10,4076,-16208,-216,-717,197,-154
2293,701,742,883,736,10,4216,-16224,-128,-690,138,-158
2296,703,738,882,735,13,4268,-16268,-64,-674,107,-167
2299,701,741,885,736,12,4248,-16168,124,-646,94,-189
2302,704,739,889,734,11,4180,-16212,172,-614,17,-176
2305,702,741,886,738,14,4276,-16120,76,-575,42,-170
2308,699,740,890,740,10,4272,-16096,160,-542,-16,-164
2311,698,738,890,737,13,4332,-16096,88,-539,12,-146
2314,703,740,887,736,9,4256,-16120,80,-526,19,-131
2317,688,740,887,739,10,4220,-16156,104,-517,45,-144
2320,697,740,883,738,13,4260,-16040,132,-506,79,-130
2323,694,743,883,738,13,4312,-16224,120,-527,70,-124
2326,702,749,880,739,9,4236,-16196,204,-495,58,-110
2329,702,745,886,739,8,4220,-16192,172,-485,74,-50
2332,704,750,886,740,12,4236,-16236,128,-511,45,-82
2335,704,748,882,738,14,4196,-16096,104,-485,35,-47
2338,702,748,885,741,7,4404,-16236,120,-481,24,-43
2341,703,747,882,737,11,4352,-16252,192,-525,-32,-38
2344,706,749,882,742,16,4372,-16288,48,-507,-46,-27
2347,707,750,882,732,6,4428,-16196,176,-535,-59,-29
2350,706,751,887,738,5,4252,-16060,164,-554,-42,-38
2353,706,745,887,739,14,4412,-16204,160,-617,-52,-29
2356,710,747,883,750,11,4288,-16188,188,-630,-43,-48
2359,706,752,885,735,10,4352,-16176,164,-655,-24,-19
2362,703,751,887,736,9,4220,-16164,84,-661,-57,-6
2365,705,749,885,737,7,4232,-16212,280,-684,-79,14
2368,707,753,887,739,11,4168,-16036,208,-689,-106,4
2371,711,752,887,737,9,4156,-16184,196,-676,-123,7
2374,702,752,890,739,11,4128,-16152,228,-674,-155,28
2377,706,748,886,737,7,4160,-16140,152,-660,-193,44
2380,708,749,896,737,10,4256,-16152,84,-646,-205,56
2383,694,750,892,735,10,4152,-16132,148,-664,-249,58
2386,704,748,891,737,10,4208,-16168,148,-621,-252,71
2389,706,746,885,735,14,4244,-16116,216,-676,-276,60
2392,707,752,883,741,10,4224,-16040,184,-669,-285,78
2395,704,743,891,747,12,4164,-16120,140,-691,-246,59
2398,688,749,884,753,9,4264,-16132,264,-696,-274,60
2401,701,736,886,730,13,4204,-16060,88,-729,-301,60
2404,714,749,878,741,11,4228,-16216,8,-772,-305,50
2407,692,752,886,741,10,4136,-16100,80,-798,-303,48
2410,700,752,895,741,14,4132,-16200,140,-807,-349,35
2413,699,750,886,738,12,4120,-16200,108,-802,-341,33
2416,700,754,882,749,14,4100,-16164,120,-826,-362,27
2419,704,752,883,742,10,4096,-16112,244,-820,-375,-1
2422,699,749,880,746,7,4144,-16124,28,-822,-366,-1
2425,702,751,880,741,7,3996,-16192,240,-876,-383,-27
2428,702,752,885,743,6,4092,-16120,96,-855,-403,-59
2431,704,749,880,741,11,3892,-16256,200,-862,-415,-44
2434,703,753,885,747,7,4084,-16220,44,-841,-430,-71
2437,699,747,880,743,10,4052,-16168,68,-862,-414,-71
2440,699,747,880,741,13,4000,-16160,96,-867,-406,-95
2443,704,752,880,745,14,4016,-16192,40,-901,-418,-108
2446,700,748,905,741,10,3948,-16140,28,-899,-430,-116
2449,703,752,882,743,7,3880,-16160,-24,-930,-434,-119
2452,701,751,882,743,14,3856,-16192,-108,-936,-418,-155
2455,704,752,880,744,10,3840,-16220,-44,-906,-433,-170
2458,699,747,880,740,8,3796,-16236,-16,-907,-452,-152
2461,700,747,880,743,12,3824,-16136,-56,-892,-473,-181
2464,688,747,887,737,14,3856,-16212,-144,-885,-469,-155
2467,701,750,881,740,5,3820,-16164,-28,-901,-494,-184
2470,703,752,880,743,12,3824,-16164,-20,-915,-499,-193
2473,703,751,880,742,7,3784,-16340,-176,-922,-540,-185
2476,697,755,885,745,9,3760,-16256,-40,-956,-545,-198
2479,702,753,880,741,8,3764,-16256,-132,-967,-583,-177
2482,701,757,885,745,7,3816,-16380,-96,-968,-607,-205
2485,700,762,880,747,6,3824,-16220,-132,-1017,-621,-215
2488,704,761,880,751,9,3728,-16268,-244,-1036,-645,-218
2491,703,765,886,749,10,3860,-16304,-176,-1033,-606,-236
2494,701,769,885,746,7,3904,-16304,-100,-1060,-613,-230
2497,704,767,887,746,9,3724,-16212,-272,-1046,-652,-227
2500,704,766,886,743,9,3836,-16324,-68,-1055,-668,-243
2503,699,758,885,742,7,3784,-16376,-272,-1062,-721,-252
2506,699,753,886,746,10,3736,-16260,-244,-1078,-738,-255
2509,704,753,879,741,11,3608,-16736,-484,-967,-864,-185
2512,701,752,886,740,15,3936,-16296,-64,-987,-906,-130
2515,698,747,880,755,7,3916,-16260,-76,-985,-811,-177
2518,697,750,880,746,13,3776,-16156,-48,-1017,-794,-241
2521,704,746,877,747,8,3756,-16112,-96,-1033,-785,-248
2524,694,743,880,743,9,3808,-16192,-260,-977,-763,-296
2527,695,746,882,746,7,3648,-16184,-124,-971,-686,-358
2530,698,749,880,747,5,3720,-16028,24,-923,-652,-380
2533,693,751,880,741,5,3624,-16108,-192,-908,-635,-398
2536,704,762,882,738,13,3644,-16120,-196,-863,-685,-399
2539,699,759,880,747,10,3664,-16080,-328,-817,-785,-406
2542,703,757,882,738,11,3728,-16160,-64,-751,-761,-433
2545,700,759,887,736,12,3716,-16108,-148,-718,-801,-422
2548,699,759,882,737,13,3796,-16272,-208,-702,-819,-472
2551,710,756,880,741,14,3672,-16028,-336,-692,-880,-512
2554,707,762,890,741,15,3760,-16036,-180,-659,-852,-524
2557,704,759,883,744,13,3772,-16032,-300,-688,-892,-537
2560,704,763,888,738,13,3792,-16040,-116,-677,-813,-636
2563,701,752,880,731,11,3796,-16244,-280,-618,-849,-654
2566,706,752,891,730,11,3692,-16176,-240,-622,-893,-655
2569,704,752,882,735,14,3684,-16380,-232,-546,-1053,-699
2572,705,756,887,734,15,3736,-16352,-312,-555,-1160,-700
2575,704,750,890,731,13,3872,-16332,-176,-527,-1190,-708
2578,715,749,881,735,9,3960,-16264,-264,-521,-1148,-714
2581,705,752,881,730,14,3872,-16272,-32,-512,-1250,-733
2584,706,747,907,741,14,4012,-16260,-20,-473,-1237,-782
2587,711,752,886,735,9,4080,-16204,-68,-487,-1218,-816
2590,705,752,885,736,9,3984,-16244,-136,-451,-1232,-799
2593,714,756,884,731,11,4064,-16252,-16,-434,-1170,-837
2596,709,745,885,731,14,4044,-16468,-96,-341,-1183,-886
2599,710,762,887,737,13,4060,-16296,64,-369,-1172,-885
2602,709,755,892,727,5,4160,-16272,-168,-264,-1161,-886
2605,707,754,885,726,10,4080,-16460,20,-217,-1140,-927
2608,705,752,886,723,11,4096,-16252,-140,-190,-1287,-953
2611,711,746,882,732,11,4088,-16536,-104,-153,-1366,-963
2614,710,748,890,727,10,4016,-16348,40,-50,-1403,-969
2617,704,741,881,731,2,4348,-16228,216,-129,-1264,-1010
2620,709,746,881,731,9,4032,-16328,72,-27,-1233,-1019
2623,706,746,884,737,7,4128,-16292,232,11,-1120,-1041
2626,707,737,887,731,4,4132,-16352,48,-12,-1200,-1023
2629,706,741,882,732,7,4288,-16376,112,60,-924,-1060
2632,707,747,890,725,5,4108,-16448,108,136,-1103,-1057
2635,708,753,887,725,5,4048,-16596,56,182,-1373,-1078
2638,709,743,886,721,5,4244,-16216,196,174,-1462,-1087
2641,707,743,885,725,11,4220,-16272,100,226,-1434,-1055
2644,711,748,887,729,11,4296,-16432,228,320,-1374,-1100
2647,701,752,887,725,11,4384,-16152,160,181,-1196,-1121
2650,708,747,890,726,7,4308,-16484,52,313,-1283,-1117
2653,713,748,889,727,14,4252,-16288,160,335,-1454,-1123
2656,707,741,883,726,15,4572,-16080,292,337,-1298,-1113
2659,709,741,887,722,14,4620,-15920,360,319,-1289,-1131
2662,709,746,890,728,14,4436,-16144,244,362,-1307,-1114
2665,709,738,883,724,16,4336,-16088,308,346,-1438,-1127
2668,710,755,886,725,11,4536,-16132,260,428,-1435,-1020
2671,695,741,884,722,14,4584,-16064,220,398,-1401,-1021
2674,711,743,881,728,10,4420,-16176,392,438,-1345,-1079
2677,716,757,893,735,11,4916,-15864,228,343,-1458,-988
2680,711,741,882,725,15,4716,-16096,268,333,-1383,-1012
2683,709,739,880,726,16,4784,-15940,236,164,-1050,-1119
2686,708,735,888,731,15,4660,-15932,152,104,-957,-1190
2689,708,738,885,727,16,4516,-15980,212,103,-1115,-1183
2692,711,739,889,727,12,4548,-16116,436,22,-1082,-1285
2695,706,740,881,725,16,4544,-16112,288,94,-1114,-1188
2698,716,743,881,724,13,4680,-16208,416,112,-1034,-1186
2701,714,740,883,720,14,4672,-16084,368,80,-1211,-1133
2704,709,741,884,725,11,4516,-16280,384,114,-1399,-1112
2707,716,741,884,727,11,4668,-16120,352,75,-1066,-1116
2710,706,741,886,727,15,4920,-15952,444,106,-993,-1051
2713,717,749,889,725,14,4616,-16188,476,151,-1361,-942
2716,711,747,892,733,15,4484,-16196,580,154,-1300,-949
2719,710,750,887,733,16,4836,-16108,732,140,-1110,-911
2722,707,752,896,735,16,4592,-16192,500,183,-1266,-888
2725,708,752,897,722,15,4384,-16240,584,96,-1516,-859
2728,706,751,892,720,14,4688,-15868,644,57,-1454,-831
2731,707,753,895,725,14,4724,-15932,596,-17,-1481,-779
2734,714,746,895,731,15,4712,-16140,628,-72,-1463,-744
2737,701,743,897,730,16,4864,-16272,824,-76,-1383,-699
2740,701,743,898,726,16,4768,-16084,860,-166,-1338,-674
2743,701,742,901,727,13,4792,-15976,860,-284,-1191,-716
2746,698,746,901,730,15,4792,-16008,908,-371,-1018,-757
2749,703,741,907,727,16,4704,-15848,956,-502,-1063,-716
2752,690,746,907,725,16,4772,-15944,688,-553,-1121,-712
2755,688,747,903,726,16,4796,-15840,844,-626,-1170,-725
2758,687,749,901,725,15,4792,-15792,792,-688,-1316,-686
2761,688,751,897,724,16,4716,-15768,872,-669,-1632,-629
2764,688,755,895,723,16,4652,-15896,692,-747,-1827,-654
2767,689,770,898,725,15,4852,-15796,796,-838,-1708,-603
2770,695,763,896,730,15,4932,-15800,828,-831,-1466,-609
2773,693,771,894,735,15,4992,-15816,700,-849,-1328,-629
2776,690,775,892,736,13,4940,-15952,664,-837,-1315,-587
2779,692,773,891,745,13,4980,-15892,452,-823,-1228,-538
2782,689,775,891,747,15,5052,-15916,368,-786,-1194,-513
2785,702,767,885,742,16,4956,-16036,304,-750,-1030,-437
2788,693,763,881,749,16,5168,-16144,400,-712,-852,-424
2791,700,758,880,767,14,5020,-16256,388,-691,-720,-410
2794,699,758,880,752,15,5132,-16068,356,-694,-543,-454
2797,690,752,880,753,15,4976,-16284,140,-730,-525,-397
2800,699,750,883,758,13,5092,-16124,344,-729,-644,-365
2803,704,752,894,758,16,5076,-16356,400,-765,-601,-341
2806,708,745,893,755,17,4976,-16352,256,-895,-536,-421
2809,711,749,888,752,14,5192,-16260,360,-889,-447,-398
2812,707,752,885,751,16,5092,-16344,516,-956,-482,-375
2815,701,752,897,748,15,5088,-16412,376,-949,-517,-308
2818,704,759,880,750,16,5076,-16272,744,-943,-415,-215
2821,700,762,881,742,16,4864,-16420,512,-987,-361,-184
2824,699,767,889,752,16,5072,-16324,860,-1028,-434,-125
2827,700,768,893,753,13,4804,-16092,796,-1177,-541,-147
2830,695,769,889,753,15,4940,-16180,788,-1248,-509,-171
2833,699,774,891,758,16,4984,-15960,928,-1389,-639,-230
2836,700,777,882,758,14,4828,-15932,752,-1481,-675,-213
2839,703,774,885,749,15,4976,-16028,752,-1532,-578,-183
2842,704,766,887,754,7,5064,-16000,812,-1569,-532,-134
2845,703,771,885,745,15,4832,-16068,716,-1563,-575,-96
2848,703,770,882,752,14,4824,-16044,756,-1597,-606,-88
2851,701,767,881,752,9,4844,-15936,760,-1637,-602,-97
2854,705,765,880,747,9,4660,-15964,668,-1599,-632,-93
2857,705,763,883,750,13,4812,-16056,596,-1555,-608,-60
2860,703,758,883,752,10,4804,-16128,560,-1510,-516,-32
2863,704,747,884,751,12,4912,-15924,588,-1480,-464,-26
2866,704,752,880,749,13,5028,-15920,500,-1475,-436,-17
2869,709,750,885,750,12,4688,-15948,412,-1422,-492,-14
2872,709,749,886,750,10,4736,-15940,528,-1402,-562,-46
2875,709,743,880,754,7,4964,-15912,500,-1431,-572,-34
2878,715,745,882,748,9,4896,-15852,508,-1422,-470,-46
2881,715,750,885,751,7,4824,-15884,536,-1358,-398,-26
2884,715,749,885,746,10,4912,-15928,388,-1320,-300,12
2887,716,752,881,747,14,4864,-15976,572,-1322,-231,-31
2890,720,752,881,741,12,4880,-16032,460,-1252,-194,13
2893,720,756,882,743,14,4820,-16024,436,-1244,19,-18
2896,720,762,887,742,15,4752,-15948,500,-1271,-52,-32
2899,720,758,883,745,9,4632,-16056,208,-1242,-6,-14
2902,721,752,885,738,9,4652,-16196,216,-1258,-67,9
2905,720,753,884,739,13,4632,-16248,108,-1176,-133,-34
2908,720,750,882,741,11,4716,-16196,296,-1194,-97,-30
2911,731,750,887,735,12,4656,-16280,240,-1187,-120,-56
2914,721,746,881,735,8,4616,-16248,224,-1201,-170,-73
2917,720,747,882,737,9,4524,-16176,236,-1195,-232,-89
2920,720,749,883,735,13,4508,-16316,280,-1157,-278,-106
2923,720,741,886,736,11,4572,-16220,236,-1154,-240,-116
2926,720,742,885,741,8,4536,-16120,200,-1118,-220,-128
2929,720,741,883,736,11,4492,-16136,372,-1108,-300,-122
2932,721,743,891,735,10,4508,-16136,340,-1084,-210,-144
2935,720,739,887,732,6,4516,-16116,360,-1044,-177,-133
2938,720,741,886,736,8,4488,-16160,336,-1015,-131,-125
2941,720,735,884,736,10,4540,-16028,184,-987,-153,-130
2944,720,741,885,734,11,4448,-16040,220,-959,-217,-128
2947,722,737,887,736,11,4492,-15996,112,-973,-126,-186
2950,720,742,887,741,4,4496,-15884,364,-940,35,-192
2953,722,739,883,735,9,4456,-16004,204,-882,-40,-191
2956,730,733,890,735,7,4256,-15988,136,-857,-170,-203
2959,722,734,881,734,10,4532,-16052,312,-836,-160,-190
2962,718,736,882,735,9,4640,-15988,308,-832,-63,-213
2965,719,745,886,742,6,4536,-16088,232,-810,-2,-197
2968,710,735,885,734,11,4520,-16076,296,-815,60,-233
2971,712,736,887,732,12,4532,-16076,272,-806,73,-248
2974,718,736,886,733,11,4480,-16116,312,-789,75,-258
2977,719,740,889,733,12,4444,-16100,224,-785,109,-250
2980,720,752,889,732,11,4456,-16140,396,-791,69,-258
2983,715,735,883,732,10,4536,-16188,300,-786,100,-266
2986,715,734,888,734,11,4520,-16068,380,-805,106,-292
2989,715,737,889,736,15,4528,-16092,376,-795,117,-299
2992,717,735,885,733,14,4596,-16132,464,-847,160,-304
2995,719,733,887,731,10,4644,-16064,272,-841,249,-337
2998,715,734,884,730,12,4524,-16156,264,-853,215,-324
3001,717,735,883,733,13,4596,-16064,288,-836,254,-316
3004,712,733,892,726,12,4636,-16168,372,-865,192,-293
3007,713,736,887,727,12,4596,-15952,324,-866,183,-293
3010,713,736,898,732,10,4640,-16028,264,-916,239,-279
3013,713,732,886,727,9,4680,-16032,188,-943,202,-291
3016,714,731,891,726,11,4592,-15984,200,-941,188,-325
3019,705,731,883,726,5,4736,-16096,228,-979,101,-307
3022,707,731,888,729,13,4684,-16048,300,-965,151,-287
3025,713,735,885,735,10,4724,-16020,172,-989,98,-310
3028,710,731,885,731,11,4576,-15976,284,-986,-42,-288
3031,709,732,885,730,9,4768,-16188,308,-946,-41,-264
3034,702,731,887,727,8,4612,-16048,380,-928,65,-275
3037,715,731,889,730,13,4692,-16004,360,-941,77,-295
3040,707,729,882,731,11,4716,-16056,320,-930,-10,-325
3043,708,729,886,731,10,4696,-16056,328,-920,-3,-256
3046,715,729,885,730,9,4760,-16068,328,-905,87,-253
3049,704,727,891,727,6,4704,-16060,372,-903,56,-247
3052,709,733,891,734,6,4704,-15988,500,-885,43,-224
3055,709,733,891,730,10,4796,-16140,468,-877,43,-180
3058,715,734,893,731,10,4716,-16184,220,-864,10,-177
3061,717,735,892,735,10,4732,-16136,220,-899,6,-159
3064,711,736,886,731,9,4856,-16100,264,-928,22,-170
3067,709,738,891,732,12,4672,-15980,424,-970,41,-214
3070,709,735,893,736,10,4644,-16164,368,-964,19,-177
3073,713,736,891,735,15,4824,-16088,460,-1028,134,-219
3076,707,738,893,737,11,4672,-16204,312,-1018,19,-227
3079,704,745,886,736,6,4736,-16124,292,-1049,240,-220
3082,703,727,885,735,9,4772,-16080,380,-1042,278,-243
3085,705,745,887,729,15,4768,-15976,324,-1079,314,-211
3088,701,734,883,734,16,4800,-16208,312,-1058,276,-193
3091,698,729,881,738,7,4864,-16048,312,-1095,225,-197
3094,702,734,882,741,7,4840,-16064,368,-1148,228,-187
3097,701,733,889,733,6,4720,-16224,240,-1146,174,-133
3100,702,731,882,730,7,4860,-16160,336,-1168,127,-148
3103,704,738,887,737,6,4856,-16128,300,-1177,86,-121
3106,702,738,891,736,6,4708,-16192,332,-1181,52,-160
3109,704,733,890,735,13,4768,-16196,404,-1176,102,-132
3112,701,741,889,737,7,4708,-16148,288,-1157,123,-141
3115,702,747,890,732,12,4832,-16228,328,-1130,113,-108
3118,703,737,894,739,6,4724,-16200,336,-1127,130,-82
3121,700,741,890,741,7,4860,-16120,188,-1119,112,-97
3124,699,746,889,738,7,4764,-16096,220,-1098,119,-92
3127,701,741,883,736,9,4768,-16140,372,-1099,74,-53
3130,702,743,893,734,6,4788,-15972,356,-1108,58,-57
3133,705,747,894,735,7,4884,-16044,416,-1121,43,-26
3136,700,745,891,738,5,4824,-15976,316,-1145,75,4
3139,699,740,887,736,12,4736,-16080,300,-1166,72,-33
3142,703,737,893,735,10,4844,-16060,524,-1214,116,-27
3145,699,734,887,735,6,4768,-16040,248,-1238,126,-16
3148,702,735,891,740,5,4612,-16116,452,-1244,193,-11
3151,703,737,885,737,5,4744,-15976,468,-1233,202,-19
3154,697,731,889,737,10,4800,-15996,408,-1248,239,-15
3157,695,737,893,746,9,4648,-16016,304,-1244,212,-6
3160,699,741,891,741,3,4732,-15924,368,-1228,214,-10
3163,698,737,889,743,9,4692,-15968,332,-1245,220,-24
3166,698,735,885,742,4,4640,-15900,328,-1239,192,-24
3169,701,735,889,739,6,4692,-16072,292,-1224,136,-19
3172,702,739,889,743,4,4728,-16068,288,-1225,161,-7
3175,697,738,895,743,10,4724,-16072,256,-1241,208,-36
3178,698,734,891,737,5,4772,-16028,252,-1228,189,-20
3181,703,735,890,737,3,4724,-16092,264,-1257,214,-10
3184,699,737,895,736,3,4680,-16072,352,-1270,164,1
3187,699,738,893,735,2,4712,-16040,280,-1296,179,-5
3190,697,737,891,734,3,4760,-15944,184,-1312,170,-15
3193,699,738,891,736,3,4828,-15956,320,-1299,211,13
3196,702,735,891,727,7,4892,-15888,272,-1320,269,28
3199,703,739,885,735,3,4600,-16004,176,-1324,242,33
3202,701,738,890,735,14,4684,-16000,348,-1350,260,32
3205,702,735,894,737,6,4676,-16036,292,-1352,197,41
3208,701,741,893,735,10,4644,-15980,188,-1363,185,43
3211,700,737,886,737,7,4700,-16064,356,-1363,170,59
3214,703,743,893,738,8,4760,-16044,244,-1360,169,57
3217,704,738,885,736,5,4708,-16060,164,-1375,123,57
3220,700,737,892,735,11,4656,-16108,232,-1330,109,54
3223,703,739,891,741,9,4708,-16032,304,-1349,111,57
3226,702,739,891,737,3,4716,-16100,160,-1349,153,83
3229,702,737,890,739,6,4616,-15952,268,-1338,135,100
3232,706,737,883,736,7,4708,-16080,212,-1331,124,121
3235,704,735,889,735,5,4504,-16156,136,-1329,120,107
3238,703,740,892,734,9,4680,-16020,140,-1322,81,118
3241,701,734,883,737,12,4644,-16020,152,-1332,130,132
3244,703,748,883,734,11,4672,-16032,-12,-1302,115,111
3247,705,737,893,734,10,4656,-16060,208,-1322,107,121
3250,705,740,885,742,11,4624,-16068,216,-1307,128,146
3253,700,734,885,736,11,4672,-16032,276,-1283,142,151
3256,703,737,889,737,11,4700,-16196,120,-1281,117,163
3259,703,738,885,737,11,4636,-16064,176,-1246,153,146
3262,703,737,886,731,9,4688,-16200,196,-1278,128,144
3265,699,739,891,736,12,4776,-16164,212,-1261,133,154
3268,692,740,887,734,15,4696,-16060,196,-1262,99,176
3271,702,743,886,740,14,4576,-16100,92,-1348,-8,110
3274,705,745,885,738,7,4620,-16120,224,-1299,24,154
3277,703,739,886,737,13,4784,-16204,324,-1309,231,156
3280,706,739,885,736,13,4696,-16084,224,-1299,241,148
3283,704,742,885,737,14,4680,-16228,256,-1286,246,148
3286,701,743,885,739,12,4432,-16184,124,-1297,202,157
3289,705,749,891,741,11,4644,-16156,172,-1305,202,154
3292,706,747,881,739,13,4644,-16160,76,-1289,173,160
3295,701,742,887,734,13,4660,-16140,248,-1303,114,162
3298,706,743,885,736,15,4672,-16152,128,-1286,77,137
3301,707,743,886,738,14,4684,-16184,48,-1262,92,157
3304,706,741,889,737,13,4552,-16148,224,-1273,180,168
3307,705,738,881,738,14,4552,-16152,160,-1250,152,191
3310,704,738,887,736,13,4612,-16124,92,-1239,156,191
3313,704,745,894,731,13,4584,-16124,200,-1220,212,195
3316,703,742,890,739,14,4548,-16048,0,-1256,142,206
3319,701,741,892,736,15,4652,-16248,76,-1246,170,200
3322,706,739,884,740,16,4552,-15996,16,-1237,52,212
3325,699,746,889,733,16,4700,-15968,-60,-1220,120,221
3328,706,738,888,740,20,4604,-16064,344,-1198,103,211
3331,702,759,891,737,16,4700,-16080,184,-1174,199,219
3334,703,741,887,738,16,4732,-16076,-56,-1172,237,218
3337,704,740,884,738,16,4700,-16080,112,-1153,239,220
3340,697,739,888,737,14,4656,-15980,-12,-1168,204,180
3343,701,742,883,736,15,4588,-16072,120,-1147,262,214
3346,703,736,885,737,15,4420,-16080,44,-1170,138,165
3349,702,739,885,740,14,4604,-16016,-8,-1155,188,171
3352,703,740,886,746,16,4628,-16064,-12,-1150,183,163
3355,704,743,883,738,16,4604,-16112,12,-1160,209,151
3358,698,739,882,740,17,4700,-16136,68,-1166,234,181
3361,702,742,884,726,16,4680,-16044,40,-1184,204,148
3364,704,743,887,742,16,4532,-16012,140,-1193,207,143
3367,704,745,887,736,16,4556,-16144,156,-1188,196,130
3370,704,746,887,730,16,4536,-16088,-36,-1202,192,133
3373,705,745,885,739,16,4608,-16088,24,-1206,220,162
3376,708,747,890,739,16,4512,-16148,92,-1205,175,129
3379,704,746,886,739,16,4480,-16096,76,-1194,161,99
3382,702,744,883,746,17,4504,-16148,-188,-1220,142,102
3385,704,745,894,741,16,4520,-16140,-8,-1198,135,101
3388,704,743,886,739,16,4536,-16108,80,-1200,151,64
3391,704,745,890,739,14,4612,-16076,-124,-1186,166,107
3394,703,749,883,738,16,4536,-16100,-124,-1184,177,67
3397,704,746,883,739,18,4404,-16120,128,-1172,139,36
3400,706,746,890,737,16,4440,-16144,40,-1146,141,48
3403,704,743,892,737,19,4432,-16040,88,-1149,136,29
3406,704,749,885,742,16,4408,-16084,52,-1105,134,47
3409,708,748,885,738,16,4496,-16120,136,-1094,165,26
3412,707,744,894,738,17,4456,-16020,64,-1054,149,56
3415,708,751,886,739,16,4348,-16064,-16,-1069,111,28
3418,706,743,887,737,15,4448,-16136,0,-1019,133,28
3421,706,746,890,737,15,4440,-16168,28,-1029,65,55
3424,704,746,890,742,15,4396,-16044,8,-1058,-14,11
3427,713,746,887,737,16,4476,-16188,40,-1026,-107,9
3430,707,745,886,737,18,4432,-16112,-112,-1084,-274,-36
3433,711,745,887,738,18,4616,-16120,56,-1024,73,-39
3436,710,744,891,732,17,4440,-16068,28,-1031,-37,-83
3439,705,745,893,736,16,4500,-16104,136,-996,154,-63
3442,710,746,885,739,15,4496,-16136,36,-993,172,-65
3445,707,745,887,735,17,4624,-16100,-20,-995,235,-80
3448,706,743,883,735,16,4496,-16160,20,-972,241,-58
3451,704,740,893,743,19,4432,-16044,-116,-946,157,-73
3454,705,742,886,735,16,4472,-16128,24,-960,80,-82
3457,704,741,882,741,16,4472,-16112,-40,-973,8,-107
3460,703,738,893,734,16,4388,-16084,24,-970,-23,-111
3463,707,739,890,736,16,4504,-16112,32,-962,-25,-123
3466,704,739,887,739,16,4596,-16152,40,-976,-20,-144
3469,705,739,886,736,16,4496,-16124,60,-979,-1,-159
3472,706,742,887,737,15,4600,-16056,144,-979,51,-157
3475,704,740,889,741,18,4524,-16092,32,-970,66,-189
3478,704,733,893,730,17,4496,-16120,68,-971,47,-158
3481,705,739,886,730,16,4488,-16080,12,-956,76,-162
3484,704,730,886,735,15,4488,-16036,208,-962,74,-168
3487,706,745,883,742,16,4560,-16080,44,-960,93,-179
3490,704,739,895,736,16,4480,-16080,160,-953,67,-166
3493,705,745,891,737,16,4536,-16112,-12,-955,88,-172
3496,705,741,883,737,16,4608,-16040,-24,-974,88,-190
3499,705,742,899,735,17,4568,-16112,112,-956,46,-182
3502,710,741,889,737,15,4508,-16064,-12,-945,59,-177
3505,703,746,887,736,15,4620,-16032,8,-985,59,-187
3508,705,740,887,741,14,4548,-16056,-8,-960,21,-177
3511,710,740,891,741,16,4544,-15992,-32,-975,46,-170
3514,705,743,886,735,13,4552,-16028,72,-975,63,-159
3517,704,737,892,739,16,4568,-15968,180,-947,11,-187
3520,710,747,895,734,14,4616,-16000,160,-954,58,-178
3523,705,742,892,735,15,4516,-16024,124,-945,38,-178
3526,709,742,891,734,16,4568,-16024,-44,-942,52,-186
3529,711,746,892,733,16,4632,-16000,192,-938,56,-165
3532,709,754,890,735,11,4560,-15968,180,-951,78,-166
3535,703,745,887,736,11,4628,-16008,92,-948,79,-168
3538,715,738,901,737,15,4588,-16008,24,-984,62,-187
3541,711,748,891,733,15,4580,-15952,128,-971,86,-172
3544,713,749,893,734,14,4604,-15996,148,-976,58,-159
3547,709,747,893,726,11,4588,-15984,16,-989,42,-149
3550,708,751,893,736,15,4576,-16124,16,-995,31,-133
3553,709,750,896,731,14,4664,-16024,212,-1015,41,-175
3556,707,750,894,735,13,4676,-16108,120,-1033,38,-154
3559,707,749,894,731,13,4820,-16152,144,-1038,45,-156
3562,709,750,887,735,15,4748,-16044,136,-1047,63,-146
3565,713,746,890,736,13,4772,-16124,172,-1057,83,-128
3568,717,749,886,735,16,4688,-16112,196,-1073,86,-151
3571,708,747,891,734,12,4692,-16092,68,-1083,70,-134
3574,712,752,893,737,14,4736,-16100,192,-1123,57,-137
3577,707,751,889,735,15,4712,-16076,104,-1122,59,-116
3580,711,746,885,732,13,4620,-16120,12,-1117,56,-105
3583,716,746,890,733,13,4688,-16112,120,-1119,69,-76
3586,701,755,891,736,16,4700,-16200,156,-1155,66,-101
3589,708,745,889,735,16,4736,-16124,208,-1139,76,-68
3592,697,739,881,736,13,4840,-16156,200,-1133,70,-61
3595,704,735,887,737,13,4872,-16100,148,-1111,70,-72
3598,715,747,894,746,16,4680,-16096,48,-1145,71,-35
3601,704,743,890,742,13,4748,-16080,184,-1131,63,-50
3604,705,742,890,741,13,4724,-16120,232,-1117,68,-8
3607,707,746,888,737,14,4732,-16016,148,-1140,68,-12
3610,709,750,885,742,15,4752,-16120,304,-1106,84,10
3613,708,749,891,738,14,4728,-16116,132,-1136,72,25
3616,703,748,887,736,16,4808,-16132,20,-1161,50,14
3619,705,749,887,750,16,4780,-16040,224,-1139,58,40
3622,709,748,896,745,15,4836,-16076,280,-1156,76,39
3625,709,751,893,742,16,4808,-16048,80,-1157,66,50
3628,708,736,891,743,16,4752,-16088,104,-1188,67,92
3631,709,750,893,742,15,4808,-16068,164,-1210,76,105
3634,704,746,895,742,16,4912,-16080,60,-1207,91,78
3637,704,746,893,749,16,4864,-16036,124,-1239,98,110
3640,695,749,891,743,17,4792,-16024,112,-1247,115,127
3643,710,750,887,746,16,4800,-16088,224,-1286,108,128
3646,704,749,887,749,15,4816,-16072,-60,-1293,126,140
3649,707,743,894,751,17,4792,-15996,44,-1356,136,164
3652,704,747,885,746,19,5176,-16028,-68,-1282,280,265
3655,707,749,887,749,16,4704,-16028,92,-1386,260,194
3658,705,750,893,751,18,4644,-16056,100,-1413,200,180
3661,704,747,886,750,15,4740,-16108,-12,-1409,235,230
3664,703,747,886,745,20,4572,-16048,128,-1455,250,211
3667,704,746,891,748,21,4536,-16016,164,-1468,176,206
3670,705,751,885,741,16,4604,-16180,4,-1471,167,213
3673,704,741,910,746,22,4676,-16008,-24,-1442,140,216
3676,703,745,894,740,16,4740,-16096,184,-1472,139,217
3679,709,750,890,737,17,4560,-16076,96,-1463,142,229
3682,709,749,887,738,16,4704,-16048,136,-1497,190,201
3685,705,747,885,747,17,4516,-16044,80,-1485,181,217
3688,705,748,885,745,22,4560,-16100,128,-1486,205,224
3691,707,756,884,738,21,4540,-16020,-16,-1497,272,245
3694,703,749,890,735,16,4532,-16108,56,-1527,283,209
3697,706,750,884,739,23,4500,-16104,-200,-1507,236,223
3700,709,746,885,737,19,4500,-16124,-36,-1553,211,232
3703,704,748,885,738,19,4580,-16200,44,-1578,306,231
3706,705,747,893,739,22,4480,-16096,4,-1562,332,249
3709,709,747,889,741,26,4604,-16216,20,-1575,294,282
3712,705,748,884,739,19,4444,-16192,20,-1605,220,244
3715,704,749,883,737,27,4576,-16144,-100,-1577,92,253
3718,707,752,891,738,23,4572,-16120,60,-1561,135,258
3721,707,747,886,741,22,4448,-16160,-160,-1574,19,211
3724,704,742,880,742,19,4628,-16080,-24,-1564,-12,219
3727,706,749,878,739,18,4588,-16164,-168,-1541,143,222
3730,704,751,890,741,25,4520,-16156,-124,-1553,159,159
3733,706,752,882,745,20,4664,-16092,80,-1492,427,158
3736,703,748,890,738,26,4480,-16056,-288,-1509,296,135
3739,704,747,886,741,23,4508,-16148,-244,-1450,442,136
3742,703,752,887,739,18,4504,-16176,-328,-1431,496,138
3745,708,752,891,737,26,4300,-16108,-136,-1435,420,120
3748,706,749,886,735,22,4280,-16084,-248,-1425,395,75
3751,707,752,880,737,23,4308,-16236,-72,-1372,406,94
3754,707,748,895,734,19,4236,-16048,-272,-1401,375,57
3757,707,752,887,752,24,4356,-16084,-368,-1357,399,94
3760,708,752,887,739,23,4252,-16152,-208,-1377,368,48
3763,711,753,883,736,24,4164,-16164,-256,-1376,317,20
3766,707,757,886,735,21,4148,-16144,-196,-1354,311,-9
3769,706,760,890,735,27,4196,-16148,-232,-1373,248,-33
3772,713,756,886,733,22,4132,-16220,-372,-1364,231,-42
3775,731,758,885,743,19,4280,-16128,-280,-1360,185,-61
3778,711,756,890,734,21,4352,-16212,-160,-1343,157,-115
3781,710,753,893,733,23,4416,-16252,-320,-1357,180,-118
3784,705,754,894,735,28,4440,-16204,-312,-1335,198,-170
3787,704,750,891,739,20,4436,-16248,-132,-1344,200,-154
3790,704,752,891,736,21,4448,-16240,-344,-1357,200,-162
3793,703,747,890,737,19,4536,-16160,-408,-1323,209,-182
3796,700,746,880,738,17,4536,-16188,-136,-1349,179,-199
3799,699,741,884,739,21,4596,-16120,-172,-1357,167,-196
3802,699,737,881,743,18,4620,-16320,-260,-1362,141,-203
3805,700,738,890,742,21,4660,-16192,-160,-1377,146,-211
3808,699,738,882,747,17,4716,-16232,-240,-1361,175,-198
3811,699,735,881,743,16,4792,-16124,-116,-1358,180,-196
3814,699,731,887,742,16,4812,-16104,-124,-1356,189,-185
3817,695,733,887,744,17,4680,-16088,-128,-1319,178,-197
3820,701,726,885,750,22,4700,-16092,-304,-1314,207,-186
3823,694,731,881,743,16,4764,-16080,-204,-1306,186,-157
3826,695,734,880,750,19,4764,-15956,-176,-1291,250,-130
3829,696,735,883,743,18,4872,-15984,-196,-1225,329,-53
3832,701,734,887,747,20,4628,-15884,-32,-1183,389,-110
3835,699,736,879,746,20,4680,-15988,44,-1133,327,-79
3838,701,736,883,745,21,4644,-16016,-104,-1101,348,-69
3841,699,736,893,751,21,4640,-15960,-204,-1042,327,-39
3844,698,730,893,741,16,4656,-15872,-288,-1000,306,4
3847,698,739,888,747,16,4660,-15912,-240,-982,234,0
3850,698,742,889,747,16,4704,-15860,-300,-928,198,10
3853,692,738,893,743,18,4620,-16020,-344,-930,206,4
3856,697,739,892,741,21,4604,-15928,-324,-923,211,42
3859,697,738,893,739,21,4656,-16036,-316,-946,255,69
3862,697,752,890,740,16,4700,-16016,-500,-981,268,95
3865,697,745,890,741,19,4508,-16200,-328,-991,235,60
3868,702,746,883,746,23,4604,-16076,-232,-1012,186,70
3871,699,742,891,741,22,4532,-16228,-484,-1017,185,77
3874,701,750,905,743,16,4636,-16160,-424,-1049,169,100
3877,699,748,883,744,18,4660,-16152,-372,-1032,156,79
3880,700,744,883,746,17,4580,-16120,-256,-1022,130,88
3883,701,742,886,742,19,4540,-16180,-212,-1062,87,82
3886,704,745,886,743,22,4492,-16088,-284,-1035,101,61
3889,705,749,888,748,20,4648,-16044,-172,-1083,131,40
3892,703,744,885,741,16,4548,-16132,-240,-1109,163,37
3895,705,747,883,743,19,4512,-16112,-176,-1058,192,16
3898,699,744,883,742,19,4372,-16116,-76,-1026,172,9
3901,702,743,883,747,27,4456,-16088,-236,-992,164,-16
3904,698,742,887,743,20,4460,-16112,-32,-996,161,-19
3907,701,742,885,736,22,4416,-16164,88,-949,155,-53
3910,695,737,895,741,19,4484,-16120,-124,-910,253,-21
3913,697,738,890,746,21,4356,-16128,4,-889,187,-18
3916,699,740,880,742,19,4388,-16068,-76,-879,204,-12
3919,695,741,884,742,23,4392,-16004,-8,-853,145,-21
3922,695,737,884,743,25,4508,-16028,92,-878,136,12
3925,691,735,885,740,28,4364,-15972,-120,-925,-43,-57
3928,688,731,890,761,21,4524,-16008,204,-897,53,-23
3931,693,725,887,743,20,4520,-15932,-80,-920,70,-35
3934,695,733,889,747,19,4456,-16000,-32,-983,102,-38
3937,694,729,891,739,21,4308,-15884,-36,-1009,112,-67
3940,692,726,889,743,18,4492,-16012,52,-1036,151,-107
3943,693,727,892,742,21,4524,-15904,64,-1039,244,-111
3946,698,734,889,748,21,4516,-16000,-40,-1057,232,-155
3949,702,733,896,742,20,4460,-15920,-8,-1077,177,-149
3952,695,736,882,745,19,4492,-15988,-136,-1081,115,-147
3955,697,734,885,743,23,4524,-16032,-16,-1046,81,-161
3958,703,741,886,743,20,4744,-16020,-116,-1012,185,-94
3961,693,739,886,746,21,4328,-16120,36,-1062,38,-185
3964,699,741,887,746,16,4412,-15996,-116,-1040,-45,-209
3967,702,739,883,743,19,4408,-16024,-156,-1025,-35,-237
3970,701,745,890,746,17,4432,-16132,-208,-1028,-97,-251
3973,704,741,886,742,17,4384,-16004,-268,-1017,-96,-281
3976,700,742,883,744,17,4424,-15984,-200,-1018,-64,-294
3979,702,738,886,742,16,4304,-15972,-264,-1010,-15,-292
3982,701,744,883,742,18,4288,-15912,-264,-1060,76,-270
3985,704,749,886,745,16,4356,-15996,-156,-1044,107,-293
3988,704,752,887,742,18,4260,-15980,-252,-1062,103,-312
3991,705,752,887,738,16,4160,-16096,-228,-1099,74,-294
3994,710,751,884,736,16,4372,-16004,-156,-962,302,-199
3997,706,753,889,737,16,4248,-15956,-72,-1044,60,-230
4000,706,751,890,736,18,4044,-15944,-248,-1105,-193,-240
4003,706,751,883,739,16,4056,-15952,-228,-1127,-500,-260
4006,707,752,887,741,15,4092,-15844,0,-1198,-533,-283
4009,704,754,889,734,15,4344,-15892,-140,-1185,-237,-316
4012,707,754,891,736,16,4284,-15928,-144,-1236,-381,-395
4015,706,750,886,737,16,4244,-15892,-52,-1196,-380,-390
4018,711,755,894,741,16,4468,-15944,52,-1104,29,-403
4021,705,754,889,739,16,4472,-15948,32,-1073,122,-386
4024,711,757,894,734,14,4464,-15900,-8,-1037,127,-396
4027,707,753,891,733,16,4476,-15896,-124,-962,-10,-380
4030,707,757,891,732,14,4360,-16020,-192,-957,-111,-365
4033,715,757,892,731,15,4420,-15968,-32,-895,-131,-389
4036,709,753,896,731,16,4504,-15924,-228,-894,-165,-400
4039,712,756,890,724,14,4408,-15956,-216,-906,-225,-437
4042,708,755,896,724,15,4532,-15960,-260,-878,-278,-419
4045,709,759,893,729,14,4496,-16004,-276,-944,-212,-405
4048,709,752,891,727,12,4684,-15944,-132,-951,-153,-421
4051,704,753,891,727,11,4728,-16024,-52,-981,-111,-409
4054,705,753,891,729,11,4628,-16064,-176,-1002,-130,-387
4057,703,753,889,732,11,4604,-16068,-248,-1018,-122,-366
4060,703,752,891,737,6,4792,-16068,-276,-1044,-112,-360
4063,705,752,883,738,13,4648,-16144,-152,-1084,-141,-332
4066,702,752,883,733,14,4684,-16140,-68,-1114,-198,-311
4069,701,752,883,739,12,4644,-16276,-200,-1126,-232,-304
4072,704,751,886,757,11,4736,-16264,-28,-1121,-240,-334
4075,705,747,897,738,10,4712,-16196,-20,-1141,-271,-287
4078,709,750,885,749,9,4836,-16120,-4,-1177,-221,-318
4081,708,752,886,742,6,4772,-16112,116,-1201,-234,-296
4084,710,751,887,738,11,4796,-16172,-20,-1181,-252,-314
4087,720,752,883,739,9,4936,-16000,-24,-1220,-221,-281
4090,707,743,886,741,11,4828,-16088,-100,-1168,-185,-254
4093,711,749,883,739,10,4880,-16020,-52,-1169,-193,-245
4096,717,749,889,741,6,4804,-15956,-8,-1145,-192,-236
4099,715,751,885,743,6,4748,-15992,-16,-1148,-195,-204
4102,720,752,891,741,4,4724,-15980,-96,-1144,-208,-221
4105,717,746,887,742,14,4672,-16020,-100,-1139,-208,-212
4108,714,745,889,735,3,4632,-15948,-244,-1154,-230,-200
4111,717,746,885,736,13,4796,-15960,-200,-1133,-195,-180
4114,717,741,903,738,10,4656,-15960,-196,-1142,-154,-144
4117,714,749,889,737,5,4688,-16068,-328,-1147,-157,-158
4120,718,752,891,734,6,4716,-16004,-232,-1174,-169,-160
4123,718,752,890,741,7,4696,-15932,-288,-1175,-156,-157
4126,709,753,894,735,6,4588,-16012,-148,-1192,-195,-168
4129,714,752,890,732,5,4668,-16040,-416,-1204,-244,-196
4132,714,753,892,731,4,4780,-15984,-412,-1221,-233,-168
4135,709,752,885,730,6,4736,-16080,-308,-1222,-225,-150
4138,709,755,894,731,2,4708,-16148,-336,-1259,-224,-161
4141,711,755,890,734,4,4720,-16176,-332,-1264,-206,-166
4144,705,754,889,731,5,4784,-16148,-28,-1306,-214,-147
4147,706,758,885,737,2,4888,-16240,-352,-1306,-209,-159
4150,704,755,895,736,5,4828,-16204,-264,-1325,-207,-151
4153,703,753,894,731,1,4776,-16172,-236,-1350,-250,-153
4156,707,754,893,730,6,4772,-16204,-356,-1355,-273,-178
4159,708,752,894,732,7,4892,-16280,-224,-1339,-234,-129
4162,704,758,895,734,0,4824,-16272,-196,-1336,-202,-155
4165,710,755,884,733,2,4828,-16172,-304,-1331,-166,-135
4168,706,767,891,735,1,4928,-16124,-332,-1305,-170,-111
4171,704,757,896,730,2,4744,-16264,-108,-1293,-183,-115
4174,706,757,895,732,0,4804,-16168,-292,-1297,-176,-91
4177,704,755,892,731,2,4792,-16128,-300,-1285,-148,-81
4180,704,757,890,738,1,4768,-16104,-316,-1279,-122,-85
4183,707,753,891,737,2,4784,-16136,-236,-1298,-130,-72
4186,706,756,918,736,0,4804,-16060,-248,-1278,-75,-94
4189,715,752,887,741,2,4760,-16108,-380,-1280,-88,-84
4192,704,749,882,737,3,4812,-16120,-272,-1272,-59,-81
4195,702,748,885,734,2,4788,-16160,-272,-1253,-51,-58
4198,703,748,886,746,2,4840,-16052,-364,-1233,-66,-42
4201,707,743,893,737,1,4844,-16172,-280,-1206,-52,-59
4204,708,746,885,746,0,4792,-16180,-440,-1137,-15,-21
4207,709,741,885,747,2,4736,-16192,-448,-1119,-30,-7
4210,710,735,890,755,2,4824,-16112,-416,-1050,2,2
4213,705,739,889,745,0,4776,-16148,-468,-1041,4,5
4216,706,745,885,751,1,4832,-16116,-536,-1015,29,0
4219,710,741,887,745,3,4752,-16180,-288,-970,36,11
4222,710,736,886,745,2,4820,-16152,-404,-981,61,15
4225,708,745,891,742,4,4772,-16108,-412,-942,50,20
4228,710,742,883,742,2,4712,-16156,-556,-934,82,15
4231,716,746,891,746,3,4732,-16132,-560,-900,57,14
4234,706,742,896,737,1,4728,-16076,-372,-912,72,3
4237,701,745,886,743,0,4612,-16160,-392,-879,104,32
4240,705,746,889,742,5,4636,-16132,-388,-880,58,46
4243,701,746,891,742,0,4760,-16108,-460,-850,43,27
4246,703,751,887,741,1,4596,-16060,-516,-851,37,54
4249,703,745,890,740,5,4784,-16032,-240,-841,42,52
4252,705,745,883,737,0,4708,-16016,-212,-854,23,59
4255,702,747,886,738,1,4744,-15988,-488,-844,-11,99
4258,688,752,887,741,8,4736,-16012,-320,-856,44,60
4261,700,743,896,736,3,4720,-15984,-368,-865,24,29
4264,701,746,889,741,2,4668,-16032,-328,-872,13,56
4267,702,747,890,735,1,4676,-16028,-316,-871,-7,48
4270,704,749,890,739,1,4804,-15988,-204,-867,-15,56
4273,704,749,885,739,0,4732,-15944,-284,-876,-36,81
4276,704,748,880,742,5,4752,-16048,-308,-893,-20,70
4279,706,747,886,733,0,4736,-16012,-532,-872,-76,101
4282,704,752,886,741,1,4768,-16008,-200,-839,44,93
4285,711,752,890,738,1,4816,-16000,-288,-822,-6,121
4288,707,752,884,739,1,4660,-15936,-292,-814,50,161
4291,701,745,889,736,0,4680,-15984,-352,-745,43,179
4294,706,749,887,739,1,4576,-16064,-292,-714,64,215
4297,709,751,890,734,0,4648,-15984,-400,-695,83,241
4300,711,752,889,736,1,4544,-16112,-460,-654,82,233
4303,708,752,889,736,5,4496,-16084,-304,-614,70,262
4306,713,751,891,735,4,4676,-16004,-348,-620,78,277
4309,714,752,890,741,0,4560,-16124,-308,-575,92,269
4312,710,752,893,734,3,4492,-16136,-464,-557,101,296
4315,709,754,912,734,3,4512,-16104,-204,-561,104,284
4318,709,755,893,731,0,4456,-16228,-304,-545,59,308
4321,708,755,894,733,6,4496,-16044,-196,-556,19,293
4324,710,759,892,731,0,4420,-16088,-304,-526,21,331
4327,705,753,894,732,1,4420,-16036,-368,-523,40,315
4330,707,753,893,730,2,4412,-16188,-68,-513,-10,346
4333,710,754,884,732,0,4556,-16068,-272,-489,-48,364
4336,706,752,890,734,5,4504,-16096,-264,-485,-97,386
4339,711,752,887,734,5,4536,-16108,-164,-474,-79,369
4342,702,753,894,735,3,4588,-16068,-208,-477,-84,364
4345,704,754,894,735,1,4596,-16096,-164,-494,-62,373
4348,713,753,901,733,0,4748,-16116,-204,-489,-44,369
4351,707,751,893,729,4,4680,-16064,-236,-488,-35,345
4354,705,758,894,733,6,4744,-15960,-176,-484,-4,359
4357,706,747,889,735,2,4612,-16080,-188,-511,3,351
4360,706,742,892,736,0,4732,-16056,-36,-512,11,331
4363,709,751,893,738,3,4708,-16020,-136,-525,6,314
4366,704,748,887,735,1,4656,-15960,-180,-514,-51,331
4369,705,747,892,736,7,4804,-15948,-248,-563,-54,305
4372,709,747,893,739,5,4612,-16076,-96,-536,-49,315
4375,710,746,896,743,1,4696,-16032,-68,-562,-66,338
4378,703,740,890,734,7,4668,-16048,-80,-578,-76,303
4381,706,746,890,741,1,4524,-16152,-188,-630,-79,313
4384,704,741,892,743,2,4548,-16064,-196,-649,-50,325
4387,698,736,891,746,6,4612,-16176,-340,-667,-28,272
4390,704,737,891,745,12,4576,-16016,-108,-663,-31,321
4393,706,739,889,743,2,4628,-16112,-60,-721,-28,290
4396,706,741,891,742,5,4588,-16104,-48,-701,-44,302
4399,703,736,892,752,7,4532,-16124,-32,-740,-47,282
4402,704,738,895,742,11,4600,-16044,-52,-740,-64,281
4405,706,737,895,743,5,4572,-15988,-120,-748,-94,275
4408,707,741,883,742,6,4488,-16080,28,-767,-134,259
4411,704,733,889,743,7,4568,-16076,-140,-782,-169,234
4414,709,739,881,749,6,4564,-15912,4,-832,-208,229
4417,706,746,894,745,9,4552,-16064,52,-844,-228,203
4420,713,742,887,745,11,4452,-15936,-92,-882,-254,189
4423,707,752,886,747,7,4512,-15964,-156,-917,-293,188
4426,712,743,890,743,14,4524,-15936,-244,-958,-268,185
4429,706,743,889,746,6,4352,-15936,0,-964,-295,148
4432,710,750,890,742,13,4420,-15980,-196,-1019,-313,123
4435,709,745,892,744,9,4460,-16028,-132,-1008,-313,124
4438,709,746,886,743,7,4396,-16044,-256,-1038,-367,127
4441,706,749,891,739,8,4384,-15952,52,-1070,-359,115
4444,719,747,883,746,9,4380,-16044,-132,-1082,-364,111
4447,717,753,896,742,7,4400,-16012,-48,-1117,-317,81
4450,714,755,897,741,11,4328,-16044,-4,-1130,-348,72
4453,714,753,885,734,9,4412,-16052,-132,-1135,-272,74
4456,710,759,898,735,8,4280,-16020,-124,-1130,-310,54
4459,710,758,894,737,11,4348,-16124,56,-1138,-294,63
4462,697,752,891,760,10,4404,-16212,-196,-1131,-298,64
4465,711,753,893,737,12,4396,-16116,20,-1115,-225,62
4468,710,756,890,738,14,4344,-16128,-192,-1136,-372,36
4471,709,752,895,738,16,4428,-16124,72,-1142,-274,38
4474,713,752,909,722,11,4228,-16192,-208,-1126,-338,36
4477,709,755,887,737,13,4436,-16164,-52,-1097,-428,84
4480,704,750,889,737,11,4256,-16068,-348,-1151,-298,-29
4483,707,751,892,739,14,4448,-16144,-156,-1072,-48,3
4486,711,745,882,737,7,4452,-16188,-416,-1113,-214,-18
4489,707,746,886,741,11,4532,-16144,-44,-1064,59,-27
4492,718,747,887,735,14,4396,-16088,-260,-1094,-36,-34
4495,711,747,884,741,6,4448,-16164,-228,-1080,-87,-12
4498,707,750,885,737,9,4444,-16144,-184,-1058,-87,-11
4501,706,747,890,739,7,4436,-16124,-340,-1084,-149,-27
4504,709,751,889,729,10,4392,-16108,-168,-1061,-189,-27
4507,707,747,889,734,11,4368,-16096,-208,-1047,-127,-52
4510,714,749,886,739,7,4448,-16068,-268,-1040,-94,-63
4513,706,745,886,733,5,4448,-16092,-288,-1029,-53,-65
4516,705,745,887,733,4,4424,-16012,-284,-1019,-44,-64
4519,713,749,893,737,7,4320,-16100,-112,-1012,-8,-83
4522,712,749,886,734,6,4444,-16164,-416,-1001,0,-106
4525,710,752,885,736,7,4272,-15940,-300,-975,-20,-83
4528,706,745,889,729,5,4412,-16088,-276,-983,-40,-110
4531,727,753,887,735,5,4436,-16068,-176,-967,-54,-84
4534,713,752,890,734,3,4408,-16008,-364,-965,-21,-97
4537,718,753,886,739,3,4408,-16172,-216,-925,-65,-110
4540,715,754,892,733,2,4300,-16032,-280,-909,-46,-100
4543,714,755,891,731,6,4408,-16100,-272,-894,-61,-102
4546,707,753,887,737,6,4440,-16048,-376,-882,-21,-110
4549,706,754,884,733,4,4532,-16072,-376,-854,-44,-104
4552,715,759,891,737,0,4384,-16060,-280,-845,-38,-125
4555,713,763,894,733,3,4420,-16064,-112,-817,-58,-125
4558,712,757,896,727,6,4420,-16108,-84,-829,-43,-125
4561,719,758,892,726,1,4536,-16028,-268,-824,-41,-112
4564,713,762,897,736,2,4496,-16068,-476,-800,-33,-113
4567,718,763,891,731,0,4544,-16100,-244,-830,-4,-108
4570,715,757,891,735,0,4660,-16136,-352,-831,3,-96
4573,715,755,883,737,0,4640,-16124,-416,-828,16,-93
4576,714,756,891,734,4,4652,-16128,-480,-847,57,-77
4579,710,757,891,731,0,4596,-16212,-304,-849,21,-66
4582,707,755,891,735,0,4800,-16072,-388,-851,44,-77
4585,705,753,891,731,0,4704,-16256,-260,-872,41,-46
4588,707,765,885,729,2,4656,-16152,-296,-875,67,-53
4591,709,752,891,735,1,4664,-16204,-320,-869,50,-48
4594,707,754,893,736,0,4692,-16076,-72,-860,52,-37
4597,709,752,893,734,2,4728,-16240,-232,-876,66,-27
4600,704,750,886,736,0,4552,-16228,-224,-874,82,-28
4603,704,747,890,735,0,4656,-16156,-120,-869,86,-28
4606,710,747,892,737,0,4692,-16208,-124,-875,71,-29
4609,706,751,887,738,0,4720,-16220,-144,-876,73,-36
4612,706,745,890,742,0,4620,-16152,-148,-864,109,-27
4615,705,743,893,732,0,4632,-16240,-12,-867,119,-17
4618,703,750,892,734,0,4696,-16092,-92,-855,95,-21
4621,707,746,891,746,0,4604,-16104,-152,-868,107,-39
4624,704,733,889,736,0,4624,-15944,-32,-892,101,-10
4627,711,747,882,743,0,4660,-16024,-260,-894,105,-51
4630,705,743,887,741,0,4576,-16008,-228,-970,118,-8
4633,703,745,889,734,0,4516,-16032,-168,-987,90,4
4636,704,743,887,737,0,4580,-16000,-216,-1013,113,17
4639,705,750,887,734,0,4524,-16028,-300,-1040,86,1
4642,703,742,889,739,0,4480,-16052,-260,-1035,69,18
4645,703,747,886,737,0,4508,-16056,-224,-1024,43,-7
4648,703,746,892,738,0,4508,-16060,-292,-1010,37,10
4651,706,745,884,737,0,4588,-16000,-232,-1021,53,22
4654,704,750,890,738,0,4640,-16020,-152,-1039,48,0
4657,703,749,894,740,0,4548,-16020,-136,-1010,65,0
4660,709,747,885,743,0,4524,-16108,-140,-1014,82,-13
4663,704,757,889,737,2,4580,-16084,-268,-1029,49,-13
4666,702,752,891,738,0,4652,-15960,-176,-1020,87,-33
4669,704,749,891,735,0,4588,-16088,-280,-1018,77,-31
4672,707,751,887,735,0,4568,-16160,-92,-1042,94,-35
4675,707,752,891,732,0,4404,-16148,-208,-1013,102,-65
4678,707,750,893,738,0,4492,-16060,-152,-1012,126,-45
4681,707,745,893,737,0,4440,-16140,-288,-1009,124,-57
4684,712,752,884,733,0,4468,-16044,-184,-985,135,-66
4687,713,747,894,738,0,4368,-16144,-180,-968,160,-71
4690,711,752,887,739,0,4412,-16128,-212,-947,110,-75
4693,707,751,887,738,0,4428,-16100,-168,-953,114,-91
4696,707,752,893,737,0,4416,-16100,-228,-909,128,-79
4699,706,751,894,754,0,4360,-16008,-348,-902,121,-87
4702,707,752,890,737,0,4472,-16076,-252,-893,117,-85
4705,706,761,887,735,0,4552,-16056,-168,-881,122,-74
4708,704,750,886,739,0,4412,-16068,-188,-895,95,-116
4711,702,752,885,739,0,4432,-16060,-184,-892,163,-34
4714,704,750,889,738,0,4508,-15956,-356,-940,225,-111
4717,706,747,889,735,0,4280,-16024,-232,-932,153,-94
4720,706,753,893,735,0,4504,-16060,-176,-952,166,-112
4723,704,742,887,737,0,4444,-16004,-332,-937,153,-105
4726,703,746,894,740,0,4404,-16124,-208,-938,176,-88
4729,703,749,890,736,0,4528,-16088,-204,-959,96,-110
4732,704,750,881,738,0,4460,-16120,-240,-964,89,-98
4735,706,749,889,739,0,4388,-16028,-128,-939,130,-109
4738,705,746,888,737,0,4408,-16120,-72,-946,146,-123
4741,706,743,886,735,0,4460,-16080,-224,-953,140,-127
4744,709,739,891,734,0,4416,-16104,-188,-905,119,-115
4747,710,743,883,735,0,4496,-16156,-160,-907,96,-122
4750,705,742,892,737,0,4528,-16116,-128,-875,126,-149
4753,707,743,892,737,0,4488,-16032,-44,-884,66,-139
4756,707,743,891,741,0,4560,-16032,-204,-888,108,-130
4759,713,742,887,739,0,4560,-16076,-152,-885,108,-150
4762,707,742,891,742,0,4456,-16000,-192,-866,109,-164
4765,711,743,885,741,0,4556,-16052,-280,-866,133,-143
4768,705,744,886,742,0,4500,-16092,-204,-860,131,-160
4771,706,742,889,738,0,4544,-16084,-224,-888,124,-166
4774,706,743,895,739,0,4400,-16076,-204,-872,123,-166
4777,705,752,891,737,0,4456,-16068,-212,-859,125,-183
4780,704,745,891,740,0,4440,-16064,-316,-859,125,-173
4783,710,745,887,737,0,4588,-16040,-156,-877,98,-158
4786,711,747,890,737,0,4536,-16092,-60,-860,97,-174
4789,706,748,893,737,0,4396,-16112,-100,-871,87,-173
4792,707,752,891,735,0,4392,-16112,-184,-875,86,-159
4795,704,743,887,729,0,4460,-16044,-308,-912,95,-177
4798,708,749,886,731,0,4476,-16100,-188,-903,107,-176
4801,704,746,886,738,0,4468,-16052,-196,-900,112,-166
4804,704,750,883,727,0,4472,-16016,-236,-903,90,-168
4807,707,752,887,740,0,4588,-16020,-124,-922,124,-173
4810,706,752,886,742,0,4480,-15988,-108,-922,89,-166
4813,705,750,896,734,0,4540,-16128,-68,-936,77,-171
4816,706,749,884,737,0,4444,-15952,-180,-934,82,-165
4819,708,750,891,731,0,4508,-15992,-156,-938,68,-164
4822,706,747,886,733,0,4476,-15968,-20,-943,10,-181
4825,705,750,893,734,0,4536,-16048,-60,-969,42,-173
4828,711,743,891,733,0,4520,-15984,0,-972,28,-154
4831,709,745,894,736,0,4576,-16108,-116,-972,27,-176
4834,714,751,887,734,0,4508,-16136,-76,-977,20,-166
4837,710,746,895,735,0,4636,-16032,0,-991,15,-147
4840,708,748,891,736,0,4624,-16108,-92,-1000,41,-205
4843,716,752,888,734,0,4736,-16004,-36,-999,16,-190
4846,718,748,894,732,0,4560,-16076,-96,-1027,17,-204
4849,712,751,890,737,0,4736,-16164,-120,-1074,55,-212
4852,705,748,892,733,0,4644,-16160,-172,-1059,54,-185
4855,706,749,894,733,0,4700,-16056,-244,-1074,60,-201
4858,709,753,886,738,0,4712,-16088,-332,-1133,82,-178
4861,710,752,895,735,0,4696,-16044,-296,-1161,99,-202
4864,705,751,894,734,0,4684,-16128,-224,-1168,114,-156
4867,704,750,888,732,0,4664,-16068,-284,-1207,108,-159
4870,705,757,894,732,0,4736,-16056,-400,-1210,109,-157
4873,705,752,889,737,0,4672,-16100,-312,-1242,122,-140
4876,716,752,884,725,0,4576,-16140,-312,-1243,128,-148
4879,707,754,887,733,0,4724,-16068,-336,-1241,110,-130
4882,707,751,889,739,0,4692,-16160,-360,-1218,121,-135
4885,701,752,891,732,0,4580,-16116,-304,-1230,134,-124
4888,707,754,891,733,0,4560,-16084,-528,-1216,86,-122
4891,707,752,892,733,0,4392,-16016,-184,-1154,90,-150
4894,711,750,892,731,0,4468,-16020,-344,-1128,85,-153
4897,705,752,895,732,0,4344,-16124,-152,-1039,93,-150
4900,707,759,895,734,0,4304,-16036,-304,-992,57,-143
4903,711,754,891,733,0,4440,-16072,-404,-934,35,-151
4906,707,751,886,734,0,4404,-16096,-288,-859,-13,-154
4909,707,755,885,735,0,4424,-16132,-340,-810,-14,-131
4912,705,752,883,735,0,4504,-15952,-424,-758,-2,-155
4915,714,751,885,736,0,4408,-16152,-340,-725,-35,-151
4918,705,749,891,735,0,4428,-16048,-476,-694,-53,-167
4921,707,751,887,737,0,4484,-16128,-456,-649,-10,-160
4924,706,752,889,738,0,4464,-16096,-432,-637,-25,-179
4927,717,746,891,737,0,4440,-16084,-436,-632,-16,-192
4930,704,744,883,739,0,4416,-16052,-472,-626,-18,-234
4933,704,743,884,738,0,4428,-16156,-248,-591,-22,-209
4936,705,750,886,739,0,4568,-16140,-372,-572,-2,-227
4939,704,737,885,739,0,4508,-16176,-284,-592,3,-221
4942,707,742,889,741,0,4508,-16160,-268,-586,33,-231
4945,709,743,887,737,0,4512,-16132,-396,-586,35,-258
4948,708,763,886,738,0,4424,-16124,-248,-613,0,-248
4951,705,744,885,743,0,4432,-16092,-220,-617,44,-265
4954,711,741,885,743,0,4588,-16052,-336,-618,5,-249
4957,708,741,887,739,0,4484,-16096,-292,-635,27,-239
4960,704,747,887,743,0,4424,-16100,-224,-600,17,-249
4963,707,743,885,743,0,4476,-16152,-136,-612,-4,-246
4966,707,743,896,738,0,4440,-16000,-144,-592,-22,-220
4969,710,742,891,737,0,4576,-16104,-92,-562,-15,-251
4972,704,746,890,738,0,4404,-16068,-100,-565,5,-233
4975,695,745,886,731,0,4648,-16108,-148,-532,-46,-198
4978,704,742,883,751,0,4480,-16000,-212,-517,-13,-174
4981,703,743,893,741,0,4508,-15988,-152,-508,-40,-190
4984,704,743,884,741,0,4420,-16044,-228,-490,-51,-174
4987,702,742,898,737,0,4516,-16012,-248,-471,-39,-196
4990,711,747,891,745,0,4576,-15996,-276,-451,-70,-190
4993,708,749,893,735,0,4500,-15992,-260,-426,-44,-163
4996,708,752,893,737,0,4544,-15896,-144,-410,-74,-183
4999,709,748,883,737,0,4544,-15984,-152,-409,-99,-201
5002,710,747,891,738,0,4484,-15956,-284,-420,-116,-219
5005,708,748,883,735,0,4516,-16052,-64,-408,-139,-208
5008,703,746,887,734,0,4572,-15960,-52,-437,-160,-229
5011,709,748,889,736,0,4548,-16020,-128,-420,-184,-257
5014,711,752,892,735,0,4684,-15972,-180,-422,-194,-242
5017,708,747,884,730,0,4632,-15988,-20,-433,-235,-259
5020,714,747,891,737,0,4416,-16068,-180,-471,-278,-267
5023,713,752,886,739,0,4572,-16004,-60,-447,-281,-267
5026,700,752,884,731,0,4584,-16032,-72,-462,-305,-267
5029,716,752,896,729,0,4544,-16032,20,-463,-331,-242
5032,709,752,886,731,0,4576,-16076,-148,-466,-317,-276
5035,716,750,895,729,0,4640,-16168,-12,-482,-323,-253
5038,710,751,890,732,0,4500,-16108,100,-526,-390,-320
5041,716,752,886,731,0,4668,-16152,-168,-514,-342,-237
5044,713,752,894,733,0,4736,-16172,-24,-523,-356,-245
5047,714,753,895,731,0,4636,-16096,-128,-511,-299,-251
5050,714,752,891,733,0,4696,-16092,-8,-550,-298,-247
5053,718,752,885,737,0,4568,-16080,-124,-572,-309,-237
5056,711,752,887,727,0,4680,-16072,-68,-602,-337,-224
5059,710,750,891,734,0,4592,-16136,-100,-588,-339,-211
5062,707,750,892,733,0,4720,-16068,-108,-587,-327,-210
5065,704,751,892,734,0,4660,-16192,-128,-611,-329,-185
5068,702,751,887,733,0,4680,-16084,-40,-639,-377,-242
5071,711,746,889,733,0,4628,-16128,-196,-603,-395,-198
5074,711,746,889,741,0,4780,-16200,-204,-619,-336,-193
5077,711,750,893,732,0,4728,-16196,-72,-654,-330,-184
5080,709,749,893,727,0,4728,-16112,16,-666,-301,-192
5083,709,747,889,735,0,4596,-16032,116,-670,-367,-237
5086,709,742,887,734,0,4708,-16108,44,-679,-372,-175
5089,729,742,886,732,0,4840,-16064,-104,-722,-250,-164
5092,710,749,887,734,0,4656,-16028,44,-706,-260,-151
5095,709,750,885,741,0,4612,-15996,8,-722,-250,-165
5098,706,746,887,738,0,4668,-16036,20,-708,-273,-144
5101,710,750,891,735,0,4584,-15956,32,-684,-254,-144
5104,711,743,888,735,0,4580,-15980,184,-731,-294,-184
5107,714,752,886,735,0,4656,-16008,92,-680,-304,-151
5110,715,751,890,733,0,4688,-16016,-40,-701,-268,-152
5113,711,750,891,735,0,4788,-16124,168,-714,-232,-134
5116,708,751,885,734,0,4664,-15996,156,-700,-221,-149
5119,711,752,895,730,0,4668,-15952,-116,-724,-222,-125
5122,708,751,888,733,0,4756,-15972,48,-760,-266,-178
5125,708,746,891,732,0,4628,-16032,-48,-753,-276,-130
5128,709,736,891,735,0,4764,-15908,-168,-791,-198,-113
5131,710,752,889,735,0,4748,-16012,-24,-817,-216,-152
5134,709,753,893,734,0,4696,-16012,80,-843,-201,-132
5137,704,749,894,735,0,4716,-16052,4,-840,-196,-143
5140,707,749,895,735,0,4696,-16160,-88,-828,-203,-145
5143,704,746,892,735,0,4716,-16120,-136,-850,-215,-137
5146,706,747,891,732,0,4776,-16100,-100,-839,-211,-150
5149,706,752,889,741,0,4744,-16144,4,-821,-227,-139
5152,705,752,895,752,0,4824,-16164,12,-836,-231,-139
5155,704,745,887,733,0,4784,-16112,16,-832,-240,-151
5158,707,749,887,735,0,4772,-16164,-16,-832,-203,-148
5161,708,742,889,735,0,4572,-16208,-116,-837,-206,-167
5164,707,750,895,733,0,4776,-16132,-128,-831,-171,-155
5167,710,746,887,737,0,4740,-16144,40,-869,-118,-130
5170,714,746,894,737,0,4756,-16136,-44,-846,-165,-136
5173,703,751,890,739,0,4796,-16124,52,-845,-119,-129
5176,711,752,893,738,0,4760,-15980,-200,-876,-151,-105
5179,704,743,887,739,0,4648,-16168,-100,-867,-71,-143
5182,707,751,891,743,0,4688,-16028,-156,-872,-89,-126
5185,699,743,912,743,0,4596,-16076,-64,-890,-96,-129
5188,705,743,891,743,0,4688,-16128,-144,-852,-16,-107
5191,705,750,886,739,0,4700,-16052,-4,-890,26,-115
5194,709,743,890,742,0,4676,-16104,-48,-887,31,-101
5197,705,744,894,746,0,4672,-16080,-100,-894,12,-86
5200,710,747,893,742,0,4724,-15996,192,-908,5,-64
5203,710,751,887,737,0,4632,-16056,76,-907,47,-59
5206,705,743,891,737,0,4664,-16016,-168,-936,20,-53
5209,705,749,885,745,0,4672,-16024,4,-939,-2,-52
5212,703,746,887,742,0,4608,-16088,8,-976,-51,-11
5215,701,748,888,739,0,4628,-15980,28,-949,-42,-1
5218,706,746,889,742,0,4656,-15964,132,-978,-75,3
5221,705,746,891,741,0,4700,-15980,112,-981,-85,22
5224,704,742,890,741,0,4692,-15984,28,-977,-53,12
5227,710,739,885,743,0,4712,-16024,184,-1009,-28,-9
5230,713,740,892,748,0,4736,-15988,-12,-1003,28,-28
5233,706,742,885,742,0,4720,-16024,220,-977,56,11
5236,707,746,892,739,0,4564,-15964,40,-985,70,17
5239,711,742,891,738,0,4604,-16120,52,-938,62,47
5242,711,745,890,737,0,4616,-15976,52,-965,77,47
5245,712,746,887,736,0,4668,-16016,84,-945,44,18
5248,707,762,892,739,0,4560,-16040,-48,-980,39,59
5251,707,752,889,742,0,4596,-16032,-60,-992,-2,5
5254,707,751,892,743,0,4660,-15988,16,-1021,-32,-3
5257,709,745,893,738,0,4576,-16032,16,-1013,-12,-18
5260,713,750,891,731,0,4640,-16156,76,-1052,-16,20
5263,707,752,895,735,0,4600,-16124,-196,-1046,-18,8
5266,709,752,887,736,0,4704,-16008,-64,-1076,8,17
5269,705,750,890,734,0,4552,-16064,-64,-1088,34,-15
5272,707,747,890,741,0,4728,-16040,-20,-1089,29,-5
5275,708,752,893,732,0,4612,-16056,36,-1108,51,1
5278,707,750,886,729,0,4764,-16140,-76,-1128,33,-5
5281,708,751,882,731,0,4640,-16168,-4,-1164,38,-2
5284,709,750,881,741,0,4644,-16076,-12,-1163,46,9
5287,709,751,885,739,0,4748,-16100,-80,-1196,39,-6
5290,704,752,890,737,0,4732,-16096,0,-1191,38,10
5293,707,751,890,737,0,4796,-16084,-68,-1222,-7,13
5296,707,752,891,744,0,4664,-16024,-20,-1250,15,-5
5299,700,749,889,735,0,4672,-16052,120,-1257,-1,2
5302,704,752,890,738,0,4640,-16128,-36,-1249,-6,11
5305,709,756,882,737,0,4700,-16032,88,-1246,17,3
5308,711,747,884,736,0,4564,-16088,40,-1253,52,53
5311,707,747,890,734,0,4656,-16036,-80,-1247,57,19
5314,709,752,890,742,0,4608,-16132,128,-1217,104,40
5317,710,752,885,737,0,4532,-15996,-108,-1211,99,27
5320,714,752,886,741,1,4584,-16100,-16,-1210,93,46
5323,709,752,885,737,0,4576,-15960,-28,-1195,140,44
5326,711,750,908,733,0,4500,-16180,72,-1191,124,70
5329,709,751,894,725,0,4516,-16164,120,-1193,143,60
5332,709,752,893,742,0,4556,-16004,-28,-1190,134,49
5335,712,753,895,741,0,4464,-16028,-104,-1184,120,44
5338,713,752,891,739,0,4480,-16044,-12,-1212,132,56
5341,709,751,886,739,4,4580,-16016,-264,-1175,156,31
5344,705,748,891,737,0,4528,-16016,-16,-1192,146,11
5347,706,746,891,746,2,4552,-16196,-232,-1190,139,47
5350,708,752,885,738,7,4560,-16016,16,-1207,155,23
5353,707,752,895,741,0,4492,-16032,-188,-1201,122,20
5356,703,750,894,733,0,4584,-16088,-216,-1219,149,-2
5359,703,753,889,735,1,4656,-16120,12,-1231,127,-15
5362,707,747,887,741,0,4688,-16144,-164,-1251,141,-26
5365,706,753,890,737,3,4712,-16048,-16,-1215,177,-17
5368,706,751,886,739,0,4692,-15984,-156,-1251,146,-35
5371,703,752,891,735,2,4612,-16104,-168,-1229,173,-38
5374,705,752,893,734,0,4596,-16040,-64,-1239,148,-59
5377,704,751,887,737,0,4600,-16092,-60,-1226,153,-37
5380,703,752,890,737,5,4632,-16008,-84,-1244,140,-69
5383,707,752,894,734,0,4648,-15924,-100,-1230,178,-56
5386,709,751,890,739,2,4776,-16100,-76,-1235,137,-63
5389,713,751,890,734,0,4632,-16008,-124,-1228,144,-61
5392,705,752,891,737,1,4596,-15980,-152,-1215,140,-74
5395,706,751,911,739,0,4664,-16016,-196,-1210,109,-66
5398,709,753,893,738,0,4508,-15996,-156,-1200,142,-35
5401,707,748,893,739,0,4636,-15892,-340,-1207,75,-46
5404,705,753,895,741,2,4600,-16064,-232,-1199,82,-35
5407,709,752,885,737,1,4576,-15976,-264,-1231,80,-29
5410,705,751,889,736,0,4716,-15996,-216,-1213,36,-17
5413,710,752,887,738,0,4736,-16000,-152,-1214,31,-16
5416,707,750,887,738,0,4656,-15936,-140,-1233,8,-18
5419,715,751,890,735,0,4640,-16024,-164,-1215,29,-22
5422,709,752,886,739,0,4660,-16056,-264,-1213,-18,-7
5425,707,754,893,740,0,4672,-16100,-148,-1241,-5,1
5428,707,752,889,742,0,4808,-16000,-288,-1236,16,19
5431,710,752,885,739,0,4764,-16080,-140,-1267,16,23
5434,710,752,889,737,0,4804,-16128,-248,-1236,-20,-2
5437,709,746,894,736,3,4644,-16084,-224,-1255,-4,21
5440,708,751,885,738,0,4660,-16212,-220,-1240,-38,20
5443,713,752,895,742,2,4616,-16140,-348,-1223,-29,22
5446,708,752,894,737,2,4728,-16100,-180,-1237,-48,32
5449,715,747,892,741,2,4704,-16004,-264,-1191,-26,23
5452,707,749,892,740,0,4572,-16096,-404,-1199,-8,27
5455,707,751,889,739,3,4624,-15992,-208,-1184,-11,18
5458,706,752,894,738,7,4664,-16056,-292,-1150,-4,41
5461,720,748,885,741,3,4652,-16108,-208,-1145,5,29
5464,710,751,893,742,7,4504,-16176,-136,-1134,7,43
5467,704,751,883,735,3,4576,-16096,-316,-1106,16,42
5470,707,749,893,743,1,4596,-16140,-396,-1111,27,13
5473,704,742,890,739,3,4516,-15960,-196,-1085,-11,39
5476,705,746,887,738,0,4516,-16116,-260,-1043,-3,24
5479,709,749,891,742,2,4588,-16152,-360,-1039,-19,14
5482,705,743,893,735,4,4592,-16128,-208,-1026,-10,36
5485,707,747,886,742,6,4548,-16148,-364,-999,-11,16
5488,710,746,893,739,5,4600,-16112,-396,-1011,-30,4
5491,709,752,890,739,5,4652,-16072,-404,-1005,-41,16
5494,708,749,886,746,4,4604,-16196,-384,-986,-51,1
5497,711,746,888,739,6,4548,-16116,-376,-978,-38,22
5500,707,747,885,735,2,4508,-16064,-232,-965,-22,11
5503,710,744,892,735,7,4592,-16164,-488,-942,-51,10
5506,712,745,889,736,5,4520,-16100,-324,-943,-46,-2
5509,710,746,892,737,6,4532,-16176,-276,-942,-20,-18
5512,711,749,889,735,5,4576,-16180,-324,-913,-28,-8
5515,707,747,890,736,2,4480,-16136,-420,-888,-41,-13
5518,729,746,886,739,0,4568,-16132,-328,-895,-39,-8
5521,708,751,893,736,7,4500,-16140,-360,-888,-8,-14
5524,711,747,895,739,1,4640,-16060,-444,-866,-24,-6
5527,703,745,886,736,0,4560,-16228,-332,-871,-48,-11
5530,707,747,890,742,0,4560,-16068,-288,-835,-45,-20
5533,711,750,893,739,0,4552,-16080,-292,-843,-65,4
5536,709,748,887,737,0,4600,-16088,-152,-821,-57,-18
5539,707,748,891,741,0,4708,-16068,-312,-802,-51,-17
5542,712,741,883,743,0,4552,-16124,-300,-798,-51,-25
5545,707,740,885,738,0,4524,-16096,-304,-761,-16,-25
5548,707,742,889,741,0,4672,-16024,-352,-763,-2,-6
5551,707,746,883,737,0,4532,-16100,-248,-750,7,-17
5554,714,746,886,741,0,4556,-16088,-184,-740,15,-9
5557,711,746,885,744,0,4604,-16144,-288,-713,29,3
5560,709,745,895,755,0,4588,-16068,-364,-721,11,-18
5563,711,745,886,738,0,4524,-15996,-296,-684,22,-21
5566,713,763,886,743,2,4520,-16188,-352,-712,29,-53
5569,717,739,892,735,0,4540,-16072,-252,-665,26,-18
5572,711,743,891,737,0,4488,-16068,-200,-651,9,-19
5575,713,746,889,732,0,4444,-16116,-56,-634,51,-46
5578,708,746,894,734,0,4468,-16080,-104,-639,51,-27
5581,708,747,895,735,1,4424,-16096,-320,-618,24,-36
5584,710,749,894,731,0,4532,-15984,-188,-615,21,-38
5587,704,749,887,740,2,4488,-16084,-248,-630,23,-27
5590,709,749,887,739,3,4552,-16040,-292,-623,31,-46
5593,706,744,893,729,0,4560,-16024,-240,-609,25,-42
5596,704,743,900,734,0,4564,-16136,-160,-622,34,-44
5599,707,749,889,737,0,4492,-16052,-248,-612,21,-39
5602,708,747,890,738,0,4572,-15992,-224,-657,-23,-68
5605,704,745,891,740,2,4588,-16112,72,-621,-3,-39
5608,708,743,885,741,1,4544,-16000,-108,-641,-26,-55
5611,708,747,889,739,1,4568,-15984,-144,-611,-14,-59
5614,695,746,885,735,0,4568,-15988,20,-637,-13,-79
5617,706,752,884,736,0,4728,-16092,-72,-665,-14,-78
5620,709,746,894,735,0,4592,-15960,-36,-658,-12,-90
5623,709,743,887,739,0,4648,-16020,-84,-692,-10,-120
5626,714,747,895,737,0,4544,-16008,-156,-678,3,-119
5629,707,747,893,742,0,4568,-16092,40,-693,-45,-114
5632,714,743,896,738,0,4648,-16028,-164,-696,-31,-114
5635,710,747,893,736,1,4468,-15992,204,-680,-69,-133
5638,710,745,887,735,0,4580,-16048,-72,-696,-70,-116
5641,705,750,885,738,1,4552,-16016,-52,-679,-65,-103
5644,710,747,895,734,0,4548,-15960,-20,-695,-71,-109
5647,709,747,891,738,0,4512,-16048,-12,-695,-93,-101
5650,713,746,887,739,0,4532,-16048,-32,-712,-86,-108
5653,710,750,891,734,0,4532,-15936,-60,-734,-102,-107
5656,711,743,893,735,0,4468,-15956,-20,-752,-99,-98
5915,716,768,899,751,1689,4520,-16084,-244,-1004,63,-54
5919,723,767,897,754,1627,4432,-16020,-192,-989,73,-29
5922,704,750,887,737,1535,4480,-16112,-152,-980,75,-18
5925,711,743,880,733,1473,4464,-16012,-120,-961,67,-39
5928,707,750,889,739,1410,4500,-15956,-260,-950,66,-46
5931,704,746,891,732,1351,4424,-15976,-244,-964,51,-12
5934,708,741,886,736,1295,4456,-16092,-168,-943,26,-30
5937,707,743,887,734,1243,4460,-16092,-20,-941,15,-1
5940,713,737,885,733,1192,4576,-16048,-116,-957,9,-25
5943,706,741,887,733,1136,4588,-16028,-180,-950,-25,-11
5946,707,742,887,735,1088,4564,-15980,-336,-937,-28,-26
5949,707,745,887,734,1045,4576,-16040,-128,-976,-13,-16
5952,706,742,883,736,995,4424,-16108,-128,-991,0,-32
5955,705,739,886,733,951,4540,-16004,-336,-958,-17,-26
5958,714,749,886,733,913,4568,-16036,-184,-966,-14,-49
5961,706,739,883,727,874,4512,-16084,-232,-993,15,-50
5964,707,739,883,734,841,4496,-16012,-24,-1004,2,-48
5967,719,742,889,734,800,4548,-16072,-68,-998,-14,-52
5970,713,741,887,737,771,4536,-15980,-120,-994,7,-55
5973,710,750,907,735,741,4568,-15916,-124,-992,-11,-65
5976,711,743,891,731,707,4564,-16032,-132,-1016,34,-83
5979,710,764,880,733,674,4544,-15960,-276,-974,30,-69
5982,707,746,880,733,650,4480,-15936,-272,-972,43,-70
5985,706,741,887,732,622,4592,-16060,-132,-975,33,-62
5988,709,742,880,730,599,4568,-16068,-244,-909,36,-73
5991,706,745,882,734,573,4544,-16080,-164,-908,29,-89
5994,706,747,891,735,553,4636,-16092,-164,-904,39,-68
5997,708,743,883,735,527,4588,-16044,-156,-899,60,-84
6000,710,745,883,735,496,4480,-15976,-168,-901,19,-81
6003,704,743,889,736,481,4484,-16040,-232,-900,13,-115
6006,706,750,886,732,465,4576,-16004,-72,-893,3,-93
6009,711,746,886,731,441,4572,-16104,-192,-914,10,-62
6012,711,745,887,732,421,4652,-16172,-140,-913,-12,-89
6015,707,746,889,733,405,4604,-16164,-72,-925,-4,-116
6018,711,752,887,737,386,4600,-15980,-372,-930,14,-109
6021,706,746,886,735,373,4576,-16036,-188,-944,-45,-94
6024,705,750,887,735,363,4624,-16080,-180,-920,-1,-108
6027,707,750,887,731,342,4620,-16044,-56,-957,-33,-111
6030,706,748,891,736,329,4640,-16060,-36,-940,-36,-98
6033,705,751,886,726,314,4656,-16056,-80,-951,-4,-95
6036,722,749,886,735,301,4644,-16080,-160,-961,-28,-98
6039,714,752,890,739,288,4716,-16060,-236,-955,-18,-87
6042,710,749,886,739,277,4592,-16144,-248,-937,-28,-87
6045,716,739,886,736,266,4620,-16124,-184,-940,-10,-94
6048,709,744,890,739,258,4684,-16136,-92,-922,-24,-74
6051,707,745,889,732,245,4564,-16048,-236,-911,-24,-109
6054,711,746,912,739,236,4620,-16080,-300,-900,-43,-90
6057,710,751,888,734,225,4612,-16060,-200,-879,-10,-79
6060,713,750,891,741,213,4704,-16040,-296,-878,-18,-81
6063,706,743,892,735,206,4596,-16100,-88,-870,-48,-90
6066,703,751,893,731,196,4632,-16092,-68,-878,-31,-50
6069,707,746,887,738,190,4656,-16116,-196,-868,-34,-70
6072,704,746,889,732,180,4612,-16020,-288,-865,-25,-81
6075,708,745,885,741,171,4680,-16068,-152,-888,-12,-61
6078,719,746,887,739,167,4716,-16068,-228,-895,0,-48
6081,698,743,887,737,158,4604,-16088,-136,-891,-11,-72
6084,705,745,884,736,155,4644,-16084,-236,-900,-27,-62
6087,704,743,890,739,144,4596,-16044,0,-913,-19,-70
6090,707,747,889,735,144,4620,-16076,-108,-916,-40,-55
6093,704,741,894,731,138,4728,-16096,-216,-941,-22,-80
6096,704,749,886,737,130,4600,-16096,-120,-926,-37,-69
6099,709,745,895,737,127,4584,-16060,-204,-912,-66,-83
6102,709,743,889,742,118,4700,-16064,-84,-933,-43,-60
6105,705,748,887,735,112,4636,-16000,-200,-931,-31,-84
6108,704,741,885,726,106,4576,-16028,-72,-936,-48,-73
6111,698,744,886,742,105,4656,-16136,-252,-928,-22,-46
6114,705,747,885,737,96,4636,-16048,-100,-919,-28,-81
6117,705,744,888,739,92,4672,-16108,-268,-924,-42,-90
6120,705,742,894,750,85,4548,-15984,-156,-903,-42,-60
6123,705,747,886,739,84,4616,-16060,-320,-898,-28,-73
6126,709,739,883,743,83,4624,-16048,-212,-906,-39,-82
6129,697,746,887,746,80,4580,-15924,-204,-877,-40,-65
6132,707,751,887,738,73,4688,-16056,-208,-866,-24,-66
6135,710,746,887,740,75,4504,-15984,-92,-876,-42,-75
6138,707,745,890,740,65,4616,-16080,-124,-860,-52,-68
6141,702,745,883,738,64,4604,-16096,-116,-858,-44,-46
6144,704,746,890,736,64,4576,-15960,0,-867,-38,-40
6147,710,747,889,732,61,4520,-16124,-108,-869,-79,-39
6150,707,749,890,739,58,4580,-16132,60,-847,-50,-48
6153,707,750,891,735,55,4512,-16056,-124,-878,-85,-46
6156,707,748,894,739,53,4552,-16004,-108,-889,-109,-15
6159,696,751,887,738,49,4520,-16084,-36,-900,-99,-18
6162,709,751,890,737,48,4476,-16028,-100,-889,-132,-25
6165,712,748,892,736,48,4524,-15972,0,-909,-145,-29
6168,709,748,889,738,45,4596,-16120,-116,-917,-151,-13
6171,710,756,891,740,45,4596,-16120,-132,-904,-138,-34
6174,711,749,895,735,39,4568,-16096,-200,-916,-107,-28
6177,702,748,895,739,46,4612,-16124,-188,-931,-136,-25
6180,715,751,890,738,35,4664,-16104,-176,-932,-93,-29
6183,711,753,895,738,31,4672,-16008,-148,-968,-102,-38
6186,707,746,885,738,32,4696,-16076,-192,-961,-93,-18
6189,715,748,889,760,30,4724,-16052,-132,-984,-90,-48
6192,715,747,880,740,34,4676,-16240,-232,-985,-89,-49
6195,709,745,886,739,27,4652,-16088,-216,-973,-75,-51
6198,705,750,889,745,26,4552,-16112,-172,-1002,-75,-52
6201,708,746,887,737,26,4644,-16160,-220,-971,-66,-55
6204,705,747,888,744,30,4672,-16120,-132,-952,-76,-69
6207,707,749,883,745,25,4624,-16144,20,-964,-63,-50
6210,707,743,888,739,22,4580,-16232,-204,-977,-54,-65
6213,707,741,886,740,20,4624,-16128,-116,-990,-50,-63
6216,706,747,883,745,19,4652,-16104,-160,-976,-44,-42
6219,707,743,886,745,21,4568,-16076,44,-974,-55,-60
6222,704,738,891,741,19,4616,-15972,-68,-1005,-78,-59
6225,706,743,886,737,20,4516,-16068,4,-1007,-40,-62
6228,707,748,885,737,16,4576,-16052,-108,-998,-76,-75
6231,720,741,890,751,18,4556,-16092,-56,-1000,-64,-55
6234,707,747,887,741,23,4564,-16052,-68,-1001,-73,-57
6237,710,749,892,737,16,4440,-15960,4,-969,-52,-58
6240,716,741,897,733,16,4492,-15968,-92,-1002,-54,-60
6243,707,746,894,736,18,4484,-16052,-164,-963,-39,-40
6246,710,746,891,737,16,4556,-16044,-136,-996,-43,-53
6249,710,749,893,735,16,4556,-15980,-284,-991,-24,-102
6252,715,750,890,738,13,4592,-16096,-328,-994,-23,-84
6255,695,746,890,740,14,4544,-16108,-236,-979,-17,-76
6258,707,750,887,739,11,4516,-16028,-360,-976,-63,-74
6261,713,749,895,737,14,4580,-16004,-204,-994,-51,-75
6264,709,752,892,734,12,4592,-16124,-200,-986,-57,-94
6267,711,751,886,730,16,4436,-16096,-252,-987,-55,-88
6270,709,754,899,737,16,4536,-16112,-108,-1009,-28,-88
6273,705,752,892,734,13,4572,-15972,-176,-986,-79,-91
6276,707,751,889,738,13,4612,-16056,-60,-983,-37,-91
6279,706,754,892,729,9,4604,-16156,-188,-999,-56,-107
6282,707,753,891,735,13,4620,-16072,-88,-1000,-25,-94
6285,707,752,894,727,15,4488,-16056,-228,-1012,-36,-124
6288,709,751,891,736,13,4576,-16060,-208,-986,-42,-82
6291,709,751,890,736,12,4556,-16132,-200,-1020,-33,-110
6294,708,752,893,736,5,4568,-16076,-84,-1010,-14,-78
6297,706,752,887,745,10,4536,-16104,-84,-1014,-22,-98
6300,709,752,887,738,6,4580,-16084,-276,-998,-31,-80
6303,710,763,888,738,13,4604,-16128,-72,-1010,4,-93
6306,705,752,889,736,7,4592,-16076,-216,-972,-19,-83
6309,706,750,891,737,3,4600,-16056,-144,-1001,3,-84
6312,704,751,888,735,9,4644,-16060,-116,-971,-11,-77
6315,710,750,891,740,9,4576,-16080,-116,-964,-5,-64
6318,707,752,890,736,14,4660,-16080,-196,-995,-21,-75
6321,706,746,893,736,7,4604,-16080,-152,-977,-5,-84
6324,708,750,891,738,6,4732,-16044,-296,-953,0,-102
6327,706,752,893,734,4,4644,-16164,-312,-971,-7,-85
6330,709,746,889,738,6,4720,-15984,-260,-977,-14,-90
6333,706,747,889,743,5,4652,-16172,-204,-989,1,-82
6336,710,745,893,737,7,4576,-16108,-228,-982,8,-75
6339,705,742,887,742,4,4640,-16064,-168,-994,-8,-81
6342,710,743,886,736,0,4672,-16116,-280,-994,-22,-87
6345,704,743,887,736,2,4708,-16116,-204,-1017,-15,-90
6348,708,746,891,738,6,4636,-16168,-180,-1043,-41,-73
6351,704,743,890,735,3,4744,-16256,-68,-1068,-35,-73
6354,706,739,895,737,3,4776,-16124,-60,-1114,-68,-94
6357,709,745,895,732,3,4664,-16168,-96,-1165,-34,-73
6360,703,748,894,739,2,4860,-16220,-152,-1188,-89,-71
6363,704,742,893,741,0,4728,-16136,-96,-1234,-66,-96
6366,705,743,891,739,0,4776,-16148,-148,-1306,-85,-101
6369,707,743,895,747,2,4732,-16092,20,-1301,-125,-114
6372,705,747,895,739,0,4860,-16080,-160,-1325,-129,-89
6375,703,742,889,745,2,4828,-16196,-168,-1330,-138,-114
6378,701,742,892,746,1,4804,-16068,-104,-1367,-144,-130
6381,700,741,885,745,1,4888,-16184,-128,-1350,-124,-128
6384,702,738,888,746,0,4804,-16096,-236,-1361,-135,-117
6387,695,742,884,752,2,4812,-16148,-124,-1339,-119,-121
6390,703,741,896,750,0,4716,-16108,-460,-1349,-101,-108
6393,699,745,890,749,3,4692,-16116,-328,-1366,-69,-107
6396,699,740,886,751,0,4616,-16112,-420,-1303,-64,-97
6399,701,741,881,752,1,4712,-16040,-384,-1280,-81,-84
6402,701,743,887,747,0,4660,-16012,-388,-1235,-45,-73
6405,702,751,883,752,0,4696,-16020,-316,-1211,-34,-65
6408,703,749,882,752,7,4716,-16080,-356,-1180,12,-50
6411,690,747,889,751,0,4920,-15948,-268,-1097,129,3
6414,703,747,906,752,0,4480,-16000,-236,-1123,200,-81
6417,704,746,882,752,0,4472,-15992,-372,-1087,69,-118
6420,704,750,886,752,2,4496,-16120,-468,-934,226,-65
6423,704,749,890,740,0,4700,-15916,-168,-931,241,-107
6426,704,752,895,747,5,4440,-15928,-216,-955,136,-172
6429,714,747,894,746,0,4308,-15908,-184,-929,-251,-214
6432,706,752,895,750,1,4240,-15908,-288,-903,-421,-224
6435,709,751,893,749,2,4628,-15812,-152,-897,-195,-273
6438,703,747,885,751,0,4512,-15988,-452,-896,-91,-274
6441,705,747,886,741,2,4524,-16032,-364,-902,-107,-288
6444,705,748,893,750,2,4524,-15992,-380,-850,-29,-235
6447,707,746,891,752,0,4344,-15888,-160,-903,-58,-242
6450,703,751,890,752,0,4428,-16016,-184,-847,-39,-200
6453,698,746,893,753,0,4300,-15992,-396,-925,-126,-217
6456,707,752,894,752,3,4544,-15924,-232,-1027,-16,-291
6459,715,747,889,752,0,4580,-15996,-200,-1051,-134,-272
6462,715,750,890,751,3,4532,-16048,-184,-1030,-206,-253
6465,711,752,890,747,1,4532,-16112,-180,-1026,-296,-215
6468,712,749,891,746,0,4628,-16060,-188,-1034,-289,-213
6471,709,743,892,751,1,4720,-16088,-148,-1087,-286,-224
6474,708,746,891,747,1,4576,-16104,-180,-1124,-322,-233
6477,705,749,892,750,0,4712,-16112,-328,-1178,-182,-276
6480,710,747,890,752,0,4752,-16156,-188,-1179,-156,-284
6483,704,746,896,750,0,4716,-16200,-284,-1242,-293,-259
6486,704,743,886,752,0,4744,-16324,-324,-1220,-297,-226
6489,700,737,884,753,0,4588,-16208,-300,-1220,-391,-223
6492,701,736,885,752,0,4676,-16220,-236,-1190,-474,-168
6495,697,735,897,753,3,4920,-16256,-156,-1232,-551,-92
6498,701,729,884,751,0,4816,-16380,-168,-1152,-466,-31
6501,698,732,885,759,0,5196,-16136,-364,-1202,-292,-15
6504,693,731,887,763,2,4528,-16156,60,-1224,-327,-104
6507,700,731,887,759,0,4596,-16036,-328,-1242,-527,-107
6510,704,731,889,759,0,4788,-16156,32,-1342,-568,-75
6513,708,722,887,768,2,4712,-16092,-216,-1411,-623,-82
6516,695,727,886,768,0,4804,-16084,116,-1461,-415,-132
6519,703,724,893,767,0,4836,-16004,-128,-1437,-204,-130
6522,703,725,890,771,0,4524,-16104,-52,-1397,-177,-140
6525,695,722,893,757,0,4564,-16148,140,-1333,-167,-74
6528,707,727,887,763,0,4656,-16076,-28,-1357,-319,-94
6531,679,727,894,763,0,4492,-16008,-124,-1366,-557,-120
6534,686,731,886,761,0,4692,-16024,-48,-1367,-611,-211
6537,688,739,890,762,6,4740,-15936,-104,-1382,-557,-245
6540,688,741,883,754,0,4948,-15964,68,-1438,-253,-321
6543,688,747,888,751,2,5060,-15876,-76,-1457,-87,-361
6546,688,743,892,757,0,4928,-15956,-112,-1480,-44,-340
6549,690,747,895,755,3,4892,-15964,-404,-1423,-203,-215
6552,692,750,893,755,0,4508,-15968,-112,-1505,-412,-301
6555,698,749,896,755,1,4680,-15984,-328,-1573,-673,-326
6558,699,752,897,751,0,4728,-15940,-236,-1648,-425,-366
6561,691,752,896,744,0,4864,-15928,-316,-1681,-142,-382
6564,695,752,891,747,0,4984,-15928,-96,-1718,171,-422
6567,695,755,894,740,3,4656,-16080,-280,-1746,134,-451
6570,691,759,895,737,0,4692,-16028,-312,-1747,128,-438
6573,689,754,891,739,0,4692,-16024,-284,-1782,143,-435
6576,686,752,903,739,0,4508,-16212,-420,-1761,72,-420
6579,672,752,894,736,0,4592,-16288,-380,-1768,109,-436
6582,677,751,897,735,1,4624,-16324,-160,-1828,43,-445
6585,668,750,892,741,0,4672,-16392,-584,-1864,89,-443
6588,666,748,892,736,0,4688,-16268,-432,-1873,133,-429
6591,666,752,896,739,0,4584,-16348,-476,-1908,64,-434
6594,667,747,890,741,0,4520,-16264,-428,-2037,12,-495
6597,669,750,893,742,0,4688,-16316,-376,-2014,15,-453
6600,678,743,896,749,0,4432,-16392,-360,-2065,-163,-467
6603,683,752,889,751,1,4744,-16272,-368,-2143,-167,-455
6606,687,763,890,750,1,4540,-16268,-264,-2238,-232,-525
6609,691,761,893,753,0,4672,-16104,-144,-2314,-102,-561
6612,688,753,893,755,0,4604,-16204,-364,-2379,-248,-584
6615,697,755,887,752,0,4640,-16208,-148,-2373,-101,-504
6618,704,754,890,752,0,4544,-16228,-436,-2324,-172,-494
6621,706,752,893,750,0,4628,-16104,-216,-2361,-143,-492
6624,705,751,893,753,0,4436,-16200,-420,-2409,-333,-570
6627,702,747,893,752,0,4552,-16096,-264,-2478,-223,-571
6630,708,750,891,755,0,4652,-16044,-316,-2534,-307,-569
6633,709,733,890,755,0,4596,-16112,-248,-2545,-219,-567
6636,708,742,889,757,0,4648,-16188,-308,-2590,-372,-536
6639,711,736,893,758,0,4720,-16124,-576,-2636,-389,-554
6642,709,742,887,756,0,4648,-16200,-464,-2602,-468,-542
6645,713,742,886,755,0,4660,-16084,-496,-2491,-251,-481
6648,710,743,890,755,0,4656,-16196,-684,-2481,-110,-480
6651,720,740,891,758,0,4768,-16012,-736,-2387,38,-439
6654,713,733,881,759,0,4648,-15884,-568,-2322,63,-392
6657,711,733,880,758,0,4596,-15824,-504,-2183,224,-388
6660,714,729,880,752,0,4800,-15812,-716,-2152,24,-424
6663,716,745,880,755,0,4872,-15708,-568,-2250,109,-450
6666,715,752,881,754,0,4284,-15772,-516,-2230,-95,-531
6669,710,731,880,756,0,4716,-15796,-216,-2356,418,-571
6672,707,735,884,752,0,4556,-15748,-388,-2362,423,-610
6675,706,729,882,754,0,4292,-15872,-528,-2376,-38,-620
6678,699,737,882,755,0,4504,-15792,-584,-2452,-203,-612
6681,709,729,883,755,0,4508,-15748,-332,-2558,-210,-674
6684,716,724,887,757,0,4236,-15784,-328,-2591,-512,-713
6687,719,733,885,752,0,4440,-15976,-644,-2606,-452,-800
6690,717,736,892,750,0,4664,-16056,-472,-2659,-318,-828
6693,720,735,883,749,0,4756,-15972,-516,-2772,-247,-845
6696,719,741,881,745,0,4708,-15924,-516,-2855,-101,-882
6699,714,739,879,751,0,4792,-16100,-380,-2819,101,-852
6702,720,737,885,751,0,4420,-16184,-644,-2743,-95,-854
6705,720,739,887,752,0,4512,-16140,-580,-2821,3,-942
6708,724,736,883,749,0,4600,-16216,-612,-2788,104,-1003
6711,715,732,881,752,0,4692,-16196,-676,-2816,218,-970
6714,718,735,881,754,0,4676,-16200,-696,-2949,407,-970
6717,713,734,883,753,0,4440,-16324,-776,-2867,420,-932
6720,711,726,880,755,0,4444,-16104,-720,-2928,534,-988
6723,714,720,882,758,0,4704,-16048,-564,-3060,553,-1023
6726,717,718,883,754,0,4728,-16224,-860,-3072,628,-1104
6729,711,715,880,764,0,4592,-16400,-652,-3157,625,-1181
6732,717,712,875,765,0,4848,-16468,-620,-3211,751,-1220
6735,713,709,880,767,0,4672,-16368,-684,-3169,791,-1287
6738,715,704,877,774,0,4708,-16564,-572,-3122,698,-1315
6741,713,701,882,769,0,4604,-16480,-612,-3043,409,-1380
6744,721,702,880,765,0,4612,-16512,-588,-3035,139,-1414
6747,721,709,886,769,0,4712,-16560,-448,-3008,-92,-1483
6750,733,706,880,766,0,4956,-16560,-416,-2941,47,-1512
6753,746,709,877,774,0,5128,-16408,-332,-2914,366,-1553
6756,755,718,885,781,0,4948,-16128,-484,-2993,161,-1582
6759,758,721,877,763,0,4304,-16140,-116,-2862,-116,-1617
6762,769,731,885,779,0,5348,-15572,-476,-3208,1065,-1725
6765,763,744,882,766,0,5124,-15536,-264,-3402,1751,-1887
6768,759,746,883,763,0,4476,-15504,-660,-3536,1172,-1942
6771,759,745,886,756,0,4144,-15528,-520,-3733,890,-2101
6774,757,752,896,755,0,4264,-15572,-336,-3669,956,-2099
6777,760,752,897,752,0,3916,-15588,-720,-3835,184,-2194
6780,747,754,909,752,0,4148,-15508,-536,-3952,107,-2308
6783,743,756,913,744,0,4512,-15556,-816,-3980,266,-2323
6786,737,762,904,740,0,4632,-15672,-916,-3973,633,-2348
6789,730,751,903,752,0,4652,-15896,-1256,-3923,786,-2408
6792,728,740,905,752,0,4844,-16100,-1352,-3814,813,-2432
6795,724,740,901,758,0,4852,-16216,-1880,-3773,772,-2521
6798,722,733,896,767,0,4960,-16544,-1768,-3611,853,-2624
6801,716,730,894,774,0,5572,-16632,-1712,-3379,1404,-2526
6804,707,717,894,784,0,5392,-16788,-2388,-3316,1066,-2604
6807,702,707,877,788,0,5588,-17120,-2244,-3080,1429,-2648
6810,703,701,871,800,0,5656,-17144,-2072,-2775,1738,-2646
6813,691,689,863,809,0,5668,-17236,-2300,-2578,1659,-2676
6816,698,701,863,811,0,5684,-17128,-1944,-2405,1676,-2667
6819,705,705,865,811,0,5904,-17208,-1904,-2182,1682,-2659
6822,692,709,870,798,0,6280,-17100,-1808,-2080,1844,-2674
6825,679,718,873,784,0,6332,-17220,-1572,-2209,1963,-2837
6828,670,733,875,779,0,6204,-17096,-1528,-2307,1890,-2853
6831,671,751,869,768,0,5660,-17256,-1836,-2576,1754,-3180
6834,682,761,880,765,0,5068,-17236,-1528,-2719,1390,-3094
6837,694,770,873,749,0,5040,-16796,-1200,-2993,1384,-2972
6840,703,767,877,750,0,5320,-16576,-1284,-2844,1739,-2841
6843,714,772,878,747,0,5724,-15864,-1352,-2850,1554,-3025
6846,718,771,878,750,0,6060,-15672,-1228,-2687,1352,-3091
6849,723,772,879,752,0,5400,-15996,-1252,-2536,1424,-3117
6852,726,780,879,747,0,5448,-15464,-1436,-2467,1185,-3180
6855,735,784,880,741,0,5440,-15620,-1880,-2472,1967,-3375
6858,740,781,880,740,0,4944,-15936,-2356,-2326,2055,-3311
6861,743,770,880,742,0,4188,-15980,-2676,-2203,2085,-3293
6864,746,767,879,743,0,4008,-15868,-2820,-1873,2562,-3205
6867,736,757,881,741,0,3968,-15472,-3140,-1646,2860,-3260
6870,752,763,880,745,0,3924,-15348,-3204,-1117,2591,-3191
6873,756,767,887,753,0,4336,-14588,-3076,-493,1901,-3309
6876,759,768,894,748,0,4620,-15112,-2840,-30,2064,-3540
6879,757,761,891,742,0,4108,-15488,-2388,-4,2224,-3681
6882,733,754,891,731,0,3608,-15968,-2708,-240,2035,-3727
6885,720,754,897,749,0,3396,-15864,-2972,-615,1921,-3882
6888,711,751,898,756,0,3336,-15656,-3008,-814,1756,-3891
6891,713,752,895,763,0,3072,-15416,-2508,-1001,1655,-4047
6894,701,753,898,769,0,3584,-14660,-2056,-717,1104,-4152
6897,693,752,890,773,0,4284,-14272,-1412,-648,762,-4470
6900,677,759,890,774,0,4188,-15068,-1012,-349,1318,-4548
6903,675,762,893,782,0,3296,-15416,-1628,-562,959,-4697
6906,687,766,892,789,0,3176,-15512,-1876,-472,1110,-4736
6909,691,770,903,791,0,3652,-15376,-2012,-438,1327,-4787
6912,677,778,904,797,0,3736,-14932,-2244,-404,927,-4846
6915,663,781,901,802,0,4088,-14844,-1988,-251,1080,-5027
6918,668,784,892,809,0,3768,-15072,-2272,-110,632,-5173
6921,675,782,891,810,0,3304,-15172,-2432,-29,351,-5381
6924,689,784,883,813,0,3324,-15420,-2628,91,370,-5553
6927,691,786,875,801,0,3428,-15328,-2668,265,65,-5717
6930,697,788,879,793,0,3692,-15456,-2504,560,66,-5757
6933,705,798,879,786,0,3856,-15620,-2244,670,-159,-5987
6936,705,805,873,779,0,4056,-15464,-2184,756,-64,-6166
6939,700,816,864,778,0,4056,-15512,-2260,837,-238,-6406
6942,690,825,863,784,0,4108,-15568,-2312,1029,-541,-6483
6945,682,834,863,778,6,4124,-15524,-2276,1300,-470,-6673
6948,683,845,863,774,0,4532,-15296,-2464,1415,-473,-6844
6951,681,861,859,767,0,4836,-15516,-2536,1315,-163,-7045
6954,682,866,850,758,0,5012,-15424,-2612,1212,-60,-7157
6957,686,867,857,768,0,4804,-16072,-2928,940,-340,-7260
6960,694,864,854,766,0,4840,-16304,-2980,563,-629,-7367
6963,704,862,862,772,0,4820,-16544,-3088,361,-575,-7443
6966,698,854,884,773,0,4872,-16836,-2900,73,-619,-7540
6969,688,860,880,781,4,4616,-17320,-2732,-297,-1227,-7752
6972,702,875,896,756,7,4840,-17176,-2632,-521,-1480,-7843
6975,714,883,896,752,5,5036,-17256,-2372,-848,-2092,-7922
6978,739,880,897,731,11,5228,-17120,-1896,-911,-2622,-7966
6981,754,868,896,721,20,5808,-17080,-1324,-805,-2379,-8013
6984,766,848,886,699,32,5572,-17108,-636,-508,-2213,-7869
6987,780,816,897,692,41,6004,-17032,-596,-110,-1868,-7786
6990,793,802,910,681,48,6536,-16580,-644,676,-1473,-7665
6993,813,785,923,665,48,6840,-16312,-716,1139,-1198,-7563
6996,835,784,942,653,48,6468,-16188,-988,1192,-1135,-7652
6999,847,786,944,638,38,6772,-16220,-324,1300,-1179,-7613
7002,877,805,964,624,53,7184,-15860,0,1369,-1425,-7829
