Time,MMG1,MMG2,MMG3,MMG4,EMG,AccelX,AccelY,AccelZ,GyroX,GyroY,GyroZ
0,802,774,889,763,624,4360,-16048,-1636,-875,-90,-52
4,811,774,891,762,599,4304,-15944,-1528,-858,-72,-91
7,806,771,890,758,578,4272,-15876,-1576,-867,-75,-83
10,791,747,883,741,541,4280,-15884,-1460,-866,-114,-99
13,791,752,880,744,511,4364,-15888,-1636,-853,-106,-115
16,788,753,883,738,496,4212,-15976,-1492,-837,-98,-118
19,791,755,882,751,478,4316,-15972,-1560,-845,-88,-130
22,788,752,884,741,464,4328,-15908,-1544,-844,-109,-105
25,784,752,881,740,448,4328,-16000,-1640,-814,-74,-119
28,790,752,885,735,432,4196,-15868,-1400,-804,-53,-91
31,787,752,881,742,413,4332,-15912,-1436,-836,-46,-81
34,791,756,883,741,401,4392,-16004,-1584,-835,-30,-77
37,791,752,881,743,384,4276,-15880,-1660,-826,-41,-70
40,789,755,880,742,380,4296,-15980,-1548,-835,-23,-47
43,791,752,887,739,366,4312,-15912,-1540,-835,-4,-32
46,791,752,884,739,356,4340,-15936,-1612,-848,-33,-5
49,789,752,882,738,338,4332,-15904,-1388,-854,-10,-11
52,791,758,886,752,331,4376,-15896,-1484,-861,-19,-9
55,791,752,880,743,320,4292,-15928,-1388,-855,-63,21
58,793,754,896,747,313,4200,-15812,-1404,-866,-51,51
61,785,751,880,749,304,4336,-15984,-1372,-876,-49,32
64,794,754,880,751,298,4340,-16016,-1472,-891,-17,41
67,788,752,885,745,283,4308,-15892,-1484,-864,22,34
70,791,752,879,746,276,4272,-15932,-1336,-835,-7,46
73,788,751,881,744,271,4192,-15988,-1380,-850,-16,47
76,791,752,880,746,267,4284,-16020,-1488,-859,-35,10
79,794,751,880,743,256,4328,-15876,-1400,-894,6,32
82,787,752,884,738,250,4344,-15924,-1404,-846,-36,21
85,791,751,882,743,243,4372,-15900,-1528,-852,-113,19
88,793,752,879,743,238,4224,-15800,-1664,-891,-107,-16
91,788,752,880,746,236,4336,-15868,-1648,-905,-65,-1
94,802,756,885,742,227,4316,-15868,-1508,-912,-88,-44
97,795,753,882,746,220,4344,-15904,-1492,-913,-130,-13
100,793,757,881,741,221,4292,-15836,-1356,-954,-108,-72
103,793,759,880,735,212,4208,-16012,-1720,-936,-83,-84
106,791,758,880,739,209,4296,-15972,-1604,-975,-71,-102
109,789,758,881,739,208,4200,-16120,-1492,-975,-77,-136
112,791,757,880,743,202,4276,-15984,-1508,-920,-106,-109
115,796,761,880,740,197,4180,-16052,-1548,-936,18,-139
118,795,758,881,735,193,4172,-16080,-1500,-880,144,-138
121,794,758,883,740,190,4092,-16036,-1720,-925,41,-123
124,791,762,881,726,190,4124,-15972,-1472,-876,0,-70
127,798,756,879,738,181,4264,-16320,-1456,-782,-73,6
130,791,759,880,742,176,4396,-15892,-1504,-1020,-314,-20
133,791,757,880,742,176,4444,-16060,-1120,-818,144,59
136,794,764,875,747,174,4564,-15924,-1276,-822,284,14
139,787,762,882,745,176,4196,-15980,-1656,-1089,-6,-98
142,802,762,891,746,168,3996,-16084,-1620,-886,-183,-69
145,786,764,886,735,170,4360,-15924,-1344,-869,-270,-30
148,793,762,883,742,167,4468,-15916,-1560,-1111,-219,-195
151,793,762,880,742,160,4604,-15804,-1936,-1223,-77,-284
154,791,755,884,742,159,4760,-15644,-1208,-1350,1385,-575
157,791,757,880,746,158,5168,-16016,-1380,-1057,1697,-437
160,784,752,880,743,160,4288,-15932,-1604,-1265,1307,-460
163,785,752,880,743,153,4016,-15900,-1456,-1395,672,-462
166,791,755,882,746,154,3940,-15896,-1440,-1358,614,-455
169,787,752,880,735,150,4060,-15964,-1388,-1395,257,-482
172,786,756,880,747,150,4272,-15868,-1672,-1363,655,-512
175,786,752,881,746,147,4436,-16012,-1348,-926,872,-230
178,786,761,882,749,149,4152,-15948,-1420,-949,733,-191
181,787,753,884,746,144,4288,-15860,-1552,-1018,545,-210
184,790,755,880,745,148,4272,-16048,-1628,-1019,504,-200
187,792,757,880,743,144,4264,-15908,-1556,-1058,497,-228
190,787,752,884,745,144,4188,-16044,-1592,-1031,106,-190
193,794,759,883,750,139,4192,-15824,-1508,-1156,-32,-224
196,790,756,882,734,140,4392,-16120,-1712,-1030,65,-183
199,787,757,889,739,138,4300,-16040,-1724,-1092,-50,-183
202,791,755,880,741,144,4256,-15916,-1500,-1147,-99,-206
205,794,759,883,745,142,4416,-15828,-1528,-1158,140,-293
208,789,757,880,739,135,4320,-15972,-1556,-1145,-294,-245
211,788,761,884,739,134,4308,-15868,-1456,-1262,-297,-344
214,787,757,880,739,134,4424,-15948,-1984,-1005,19,-195
217,787,755,885,742,134,4188,-16044,-888,-795,794,-178
220,789,761,882,743,137,4764,-15840,-1380,-788,403,-115
223,786,758,880,732,130,4036,-15964,-2200,-860,158,-41
226,790,758,880,750,131,4360,-16036,-1324,-794,545,-79
229,790,759,885,742,135,4236,-15920,-1688,-913,519,-170
232,784,752,882,748,131,4352,-15892,-1372,-993,506,-254
235,789,760,880,748,135,4152,-16020,-1736,-1032,-114,-256
238,786,755,882,742,132,4108,-16028,-1724,-950,-368,-187
241,785,760,882,741,128,4424,-16116,-1636,-866,-12,-159
244,787,757,882,739,128,4372,-15744,-1416,-844,586,-180
247,787,759,883,743,130,4432,-16108,-1184,-780,669,-189
250,784,757,880,725,130,4648,-15924,-1616,-984,618,-300
253,787,755,883,743,131,4240,-16180,-1968,-987,456,-340
256,786,754,890,738,128,4544,-15992,-1812,-922,761,-422
259,786,762,889,737,128,4436,-15884,-1216,-1012,1004,-459
262,784,758,881,737,128,4148,-16012,-1508,-836,725,-363
265,785,758,882,740,127,4036,-16064,-1392,-811,482,-279
268,789,755,887,740,130,4148,-16032,-1728,-797,199,-188
271,785,754,878,741,126,4408,-16152,-1696,-887,116,-273
274,791,757,886,745,123,4424,-16056,-1712,-865,120,-264
277,787,755,886,743,123,4428,-16160,-1308,-656,281,-174
280,791,759,880,746,126,4196,-16052,-1724,-863,-427,-238
283,785,759,882,741,128,4064,-16116,-1876,-660,-485,-94
286,785,753,883,739,128,4496,-16188,-1320,-608,31,-92
289,783,757,890,740,126,4224,-15896,-1424,-1048,-738,-235
292,785,752,883,741,125,4652,-15732,-1692,-1308,-78,-530
295,784,752,882,736,121,4560,-16112,-1428,-1017,248,-473
298,786,751,883,740,127,4684,-16032,-1372,-866,722,-426
301,791,757,881,741,127,4464,-15964,-1248,-754,647,-340
304,785,757,886,738,126,4332,-15700,-1404,-779,416,-253
307,784,757,879,741,123,4540,-15788,-1360,-904,575,-331
310,784,757,892,747,124,4408,-16024,-1316,-732,474,-212
313,784,756,884,749,121,4452,-15980,-1400,-538,823,-113
316,784,754,885,746,125,4196,-15700,-1364,-403,613,126
319,783,754,880,747,128,3980,-15796,-1472,-612,88,138
322,789,752,885,755,128,4312,-15656,-1472,-684,-312,99
325,785,761,883,750,125,4104,-15644,-1852,-851,-694,113
328,786,752,884,752,122,4372,-15888,-1640,-705,-224,100
331,788,752,880,752,118,4916,-15944,-1504,-584,361,127
334,789,752,882,749,126,5052,-15692,-1764,-787,547,43
337,791,754,886,752,126,4628,-15704,-1484,-884,472,-27
340,796,754,895,749,122,4296,-15872,-1440,-965,46,-63
343,796,752,883,747,127,4460,-15864,-1732,-1176,-321,-149
346,797,752,886,743,121,4352,-15700,-1792,-1265,-305,-195
349,793,755,880,741,125,4536,-15668,-1344,-1411,-197,-309
352,795,767,880,740,124,4340,-15788,-1812,-1322,-283,-291
355,791,752,887,741,123,4280,-15876,-1760,-1341,-337,-297
358,796,755,882,743,127,4364,-16008,-1544,-1192,-204,-222
361,789,753,885,742,126,4416,-16068,-1636,-1039,347,-173
364,788,754,880,743,126,4528,-15664,-1360,-1063,767,-259
367,784,757,880,741,127,4196,-15948,-1820,-978,708,-164
370,794,752,880,742,119,4292,-15940,-1576,-998,543,-150
373,791,754,880,746,123,4076,-16064,-1396,-983,381,-151
376,794,755,886,751,122,4196,-15924,-1600,-1012,260,-141
379,787,752,880,747,122,4212,-15908,-1552,-1095,142,-177
382,789,763,882,747,124,4184,-15880,-1552,-1069,-92,-139
385,794,754,880,749,123,4148,-15948,-1484,-1118,-197,-117
388,786,751,883,745,125,4100,-15916,-1540,-1222,-454,-205
391,790,755,891,749,122,4368,-16040,-1604,-1202,-317,-200
394,791,752,882,743,121,4280,-16024,-1356,-1174,-146,-206
397,788,752,879,746,126,4312,-15992,-1348,-1157,-70,-257
400,792,755,878,746,128,4344,-15920,-1616,-1191,-81,-222
403,791,752,879,749,122,4360,-16068,-1668,-1146,16,-231
406,789,752,880,749,126,4308,-15944,-1416,-1240,-17,-243
409,787,749,883,743,121,4200,-16012,-1628,-1243,-96,-213
412,791,752,880,743,123,4308,-16040,-1248,-1156,-113,-178
415,788,752,878,747,125,4260,-15824,-1380,-1166,-35,-219
418,789,752,880,746,123,4312,-15832,-1528,-1143,99,-227
421,790,752,887,750,123,4232,-15848,-1528,-1127,250,-220
424,791,751,880,742,122,4180,-15852,-1544,-1096,369,-230
427,787,753,881,747,122,4248,-15920,-1664,-1056,225,-205
430,797,755,881,739,123,4168,-15680,-1632,-1133,185,-211
433,795,753,880,742,125,4116,-15892,-1600,-1111,131,-173
436,793,752,880,745,126,4260,-16088,-1576,-1087,121,-169
439,795,753,881,748,122,4256,-15580,-1352,-1173,79,-204
442,786,756,881,739,122,4184,-15748,-1508,-1190,7,-187
445,802,758,886,742,128,4292,-16084,-1540,-1151,-91,-156
448,795,757,883,735,120,4332,-15784,-1480,-1214,-79,-200
451,796,762,878,738,121,4140,-15992,-1724,-1198,-24,-214
454,795,763,885,741,119,4184,-15860,-1612,-1184,-16,-230
457,794,763,886,743,124,4172,-15792,-1608,-1215,-82,-246
460,797,764,886,736,122,4212,-16068,-1584,-1214,-96,-225
463,796,763,882,738,121,4440,-16004,-1628,-1272,-67,-217
466,796,758,891,737,127,4500,-16052,-1772,-1283,27,-209
469,795,762,880,741,122,4500,-15816,-1580,-1306,133,-250
472,794,767,880,735,122,4468,-15852,-1620,-1412,73,-305
475,784,767,883,739,122,4540,-15888,-1516,-1454,564,-433
478,787,764,886,739,123,4532,-15952,-1544,-1283,786,-401
481,787,765,881,741,122,4288,-15932,-1564,-1235,607,-349
484,784,764,883,746,126,4324,-16072,-1764,-1239,358,-323
487,790,767,885,751,126,4264,-16040,-1792,-1109,409,-277
490,787,764,881,746,128,4440,-15900,-1372,-1173,539,-303
493,787,767,880,743,123,4324,-16088,-1556,-1041,297,-240
496,790,761,883,747,125,4292,-16028,-1804,-1075,111,-195
499,790,759,881,742,128,4388,-16016,-1532,-1074,58,-214
502,797,762,884,747,122,4476,-16048,-1644,-1042,-14,-187
505,793,758,883,739,123,4516,-15952,-1544,-1070,-15,-212
508,793,762,882,735,123,4424,-16048,-1580,-986,67,-203
511,793,763,890,742,128,4564,-16008,-1640,-992,-47,-192
514,794,758,887,741,125,4644,-15956,-1572,-960,-67,-184
517,795,765,885,734,122,4588,-15912,-1508,-964,146,-213
520,791,763,884,738,130,4788,-15932,-1596,-922,351,-207
523,791,761,891,735,125,4740,-15852,-1628,-865,285,-204
526,795,759,882,737,124,4636,-15952,-1664,-897,141,-181
529,796,766,883,749,123,4668,-15972,-1692,-908,145,-192
532,795,763,881,736,125,4624,-15984,-1728,-921,166,-208
535,788,765,881,740,126,4704,-15888,-1640,-905,171,-182
538,795,759,887,743,128,4776,-15964,-1604,-915,110,-174
541,793,762,884,739,133,4592,-15908,-1672,-978,-38,-180
544,795,761,884,741,128,4840,-16092,-1656,-906,93,-152
547,784,755,880,745,125,4692,-15912,-1704,-890,123,-140
550,789,754,886,747,125,4768,-15892,-1648,-854,184,-127
553,788,754,883,747,128,4612,-15992,-1712,-842,111,-140
556,786,753,885,750,126,4728,-15888,-1740,-833,128,-80
559,786,758,884,743,130,4692,-15996,-1684,-849,42,-99
562,790,753,887,746,124,4712,-16024,-1620,-841,75,-65
565,786,752,880,747,128,4744,-16008,-1768,-840,41,-93
568,787,752,882,747,125,4720,-15876,-1724,-818,45,-87
571,790,755,881,751,125,4612,-15892,-1664,-826,-20,-80
574,785,751,880,747,126,4596,-15888,-1568,-807,-19,-93
577,789,752,885,743,128,4592,-15820,-1656,-805,-30,-73
580,784,752,882,742,128,4664,-15896,-1648,-784,-3,-76
583,790,752,886,743,120,4708,-15828,-1552,-764,16,-88
586,789,752,883,742,128,4632,-15852,-1480,-767,33,-75
589,790,752,880,741,130,4672,-15836,-1620,-779,21,-73
592,794,753,885,742,128,4700,-15848,-1600,-758,6,-86
595,784,753,884,749,123,4680,-15816,-1624,-756,56,-58
598,789,752,883,743,128,4628,-15920,-1632,-753,51,-53
601,792,755,887,747,128,4576,-15916,-1508,-757,22,-45
604,791,757,885,744,127,4624,-15912,-1548,-732,24,-28
607,789,777,890,742,126,4676,-15824,-1528,-763,34,-12
610,791,756,882,746,128,4688,-15868,-1704,-741,47,-17
613,790,760,887,744,123,4688,-15832,-1564,-746,2,-12
616,794,756,881,750,128,4596,-15896,-1664,-752,-20,7
619,791,755,879,746,126,4644,-15876,-1488,-759,-23,14
622,791,756,883,748,128,4648,-15884,-1516,-751,-36,6
625,789,763,882,749,124,4664,-15952,-1608,-774,-61,14
628,791,756,881,751,129,4620,-15956,-1520,-784,-62,-14
631,787,758,882,748,128,4584,-15860,-1632,-780,-70,-6
634,786,758,885,747,128,4708,-15980,-1552,-762,-38,-8
637,788,755,885,748,129,4516,-15892,-1628,-759,-31,3
640,786,752,883,749,129,4508,-15976,-1528,-755,-33,-1
643,790,754,883,752,126,4480,-15896,-1596,-742,-4,-6
646,792,752,881,750,126,4484,-15828,-1512,-770,-20,7
649,787,752,880,747,126,4412,-15884,-1416,-756,-23,24
652,790,752,882,752,126,4440,-15940,-1652,-763,5,-9
655,787,752,880,752,128,4412,-15980,-1600,-774,-49,-8
658,791,752,885,752,131,4412,-16016,-1540,-807,-34,-4
661,787,758,885,737,130,4312,-15956,-1592,-782,-57,3
664,797,752,886,749,125,4456,-15864,-1608,-807,-41,18
667,785,752,886,750,129,4376,-15772,-1384,-831,-81,10
670,795,759,883,752,128,4268,-15784,-1440,-824,-79,44
673,787,752,880,748,127,4380,-15856,-1576,-844,-108,46
676,791,754,879,749,128,4336,-15832,-1444,-824,-96,29
679,789,758,884,768,134,4472,-15888,-1348,-852,-113,24
682,794,754,885,747,132,4256,-15828,-1516,-847,-130,41
685,789,755,885,752,128,4332,-15784,-1448,-837,-123,67
688,798,762,885,747,128,4348,-15864,-1480,-837,-139,29
691,790,758,877,750,130,4320,-15772,-1360,-832,-161,26
694,790,755,880,747,128,4404,-15796,-1528,-849,-183,40
697,796,758,882,747,128,4380,-15788,-1400,-855,-181,42
700,790,751,882,747,133,4316,-15748,-1420,-868,-190,30
703,795,757,880,751,133,4416,-15812,-1400,-878,-208,-3
706,789,758,880,746,133,4256,-15684,-1472,-883,-189,34
709,790,758,880,747,128,4252,-15800,-1364,-918,-197,36
712,790,759,883,747,129,4348,-15756,-1364,-912,-195,16
715,791,758,877,749,131,4252,-15728,-1368,-968,-204,24
718,796,764,886,750,130,4280,-15748,-1480,-972,-213,37
721,793,761,882,738,130,4356,-15728,-1376,-1011,-244,35
724,793,761,880,746,128,4268,-15756,-1468,-1004,-223,19
727,799,765,882,747,128,4312,-15712,-1420,-1034,-246,29
730,797,762,882,751,127,4228,-15712,-1504,-1056,-247,14
733,795,759,880,746,128,4300,-15752,-1480,-1069,-271,27
736,788,754,883,742,130,4264,-15804,-1492,-1108,-247,21
739,802,759,883,749,128,4248,-15836,-1492,-1121,-275,43
742,793,758,879,747,130,4228,-15628,-1448,-1126,-279,31
745,790,757,880,743,128,4276,-15752,-1552,-1156,-277,27
748,794,759,880,745,128,4420,-15740,-1488,-1152,-281,36
751,798,759,885,738,132,4228,-15780,-1644,-1161,-277,46
754,791,759,883,741,129,4348,-15832,-1608,-1187,-279,65
757,791,767,880,742,128,4312,-15824,-1536,-1175,-281,63
760,794,779,880,739,125,4368,-15820,-1540,-1182,-282,68
763,795,764,884,742,131,4280,-15808,-1528,-1186,-299,58
766,794,765,885,752,131,4336,-15764,-1664,-1174,-303,82
769,797,765,884,743,129,4368,-15760,-1612,-1177,-312,81
772,794,766,887,743,128,4392,-15928,-1724,-1170,-305,83
775,798,766,885,746,130,4316,-16000,-1564,-1163,-243,61
778,795,770,884,741,128,4344,-15996,-1656,-1160,-256,69
781,795,767,885,737,130,4412,-15956,-1572,-1156,-261,88
784,795,767,887,738,131,4372,-15980,-1640,-1171,-228,77
787,810,758,882,738,129,4436,-16000,-1652,-1139,-173,97
790,816,769,887,736,128,4448,-15996,-1604,-1147,-169,64
793,794,762,890,737,128,4480,-15856,-1592,-1161,-163,95
796,795,766,884,743,134,4484,-16048,-1648,-1133,-161,107
799,803,763,887,746,128,4472,-15988,-1692,-1150,-226,70
802,791,756,873,746,129,4532,-16004,-1684,-1160,-224,86
805,787,761,882,746,129,4464,-15988,-1600,-1152,-255,44
808,789,759,886,743,125,4512,-16032,-1624,-1139,-266,56
811,793,757,887,748,129,4412,-15972,-1660,-1117,-243,60
814,791,756,887,746,128,4536,-16064,-1736,-1097,-288,61
817,799,761,885,747,129,4596,-15976,-1644,-1085,-278,76
820,797,753,882,748,132,4564,-16056,-1540,-1047,-226,83
823,791,758,889,746,128,4548,-16000,-1692,-1052,-206,67
826,794,751,887,747,129,4564,-16024,-1724,-1012,-157,55
829,796,755,884,752,128,4536,-16020,-1820,-992,-134,71
832,802,755,881,751,127,4524,-16064,-1512,-953,-90,74
835,797,758,890,752,130,4436,-16032,-1704,-956,-90,65
838,797,755,881,747,128,4508,-16000,-1720,-921,-72,71
841,795,754,880,749,128,4480,-15928,-1560,-915,-56,101
844,800,758,885,747,131,4480,-15940,-1744,-919,-105,69
847,799,757,883,752,128,4492,-15980,-1648,-932,-99,86
850,793,755,886,751,130,4552,-16028,-1760,-888,-59,67
853,795,759,883,750,130,4456,-16024,-1624,-876,-23,58
856,796,763,890,747,130,4448,-16144,-1800,-849,-39,91
859,797,760,890,747,128,4440,-15952,-1752,-817,-4,80
862,798,757,885,751,129,4344,-16072,-1544,-817,-35,96
865,796,759,882,747,128,4368,-16084,-1796,-810,-20,86
868,784,767,881,746,131,4360,-15952,-1540,-789,5,97
871,797,759,884,747,129,4332,-16048,-1664,-775,36,102
874,787,761,883,746,129,4360,-16128,-1800,-732,38,100
877,791,765,885,747,133,4488,-16096,-1736,-741,81,51
880,794,759,881,747,129,4408,-15992,-1616,-696,64,76
883,790,757,880,747,128,4528,-16024,-1752,-707,83,69
886,790,758,883,751,125,4500,-15984,-1744,-711,110,52
889,791,757,881,749,128,4440,-15928,-1696,-687,112,31
892,791,758,884,739,128,4456,-15972,-1728,-666,110,46
895,789,758,886,751,130,4528,-15944,-1660,-672,112,13
898,790,759,881,745,128,4488,-16024,-1668,-675,100,18
901,789,753,880,749,128,4440,-15944,-1552,-661,116,-39
904,788,759,880,747,127,4520,-15940,-1656,-679,102,-16
907,792,759,882,747,128,4356,-15944,-1696,-648,102,-16
910,794,759,880,747,128,4476,-16008,-1468,-665,77,-29
913,786,757,883,742,129,4460,-15956,-1612,-647,73,-50
916,791,759,886,749,128,4516,-16020,-1492,-641,109,-47
919,788,763,881,747,129,4436,-15932,-1596,-649,82,-32
922,785,755,881,746,128,4388,-15920,-1588,-634,86,-37
925,788,759,883,743,130,4404,-16036,-1588,-642,67,-19
928,785,755,880,752,128,4332,-15956,-1484,-641,47,-46
931,788,754,882,748,128,4464,-15968,-1676,-640,34,-16
934,790,755,885,741,125,4356,-15936,-1440,-616,33,-17
937,790,757,880,743,128,4316,-15924,-1532,-635,45,-13
940,791,759,879,747,128,4296,-15868,-1504,-647,24,-8
943,786,757,881,749,127,4316,-15836,-1432,-659,18,20
946,787,755,880,750,128,4312,-15880,-1572,-679,-1,9
949,783,754,884,747,125,4372,-15876,-1648,-686,-4,-5
952,789,755,884,749,125,4324,-15852,-1428,-697,14,-5
955,785,754,880,750,125,4384,-15836,-1408,-712,-7,7
958,789,754,887,751,128,4360,-15808,-1528,-772,-38,-2
961,787,756,883,752,128,4360,-15864,-1468,-784,-38,-18
964,788,757,880,751,125,4508,-15808,-1688,-819,-15,-18
967,794,751,882,747,125,4456,-15744,-1592,-853,-49,-52
970,796,755,885,742,123,4392,-15860,-1560,-870,-16,-35
973,790,757,883,746,123,4392,-15788,-1504,-877,-47,-85
976,795,759,882,748,126,4416,-15796,-1572,-921,-56,-75
979,796,754,883,740,123,4260,-15928,-1408,-929,-88,-94
982,791,758,886,746,127,4292,-15852,-1460,-940,-101,-73
985,791,758,885,747,128,4276,-15840,-1736,-980,-98,-86
988,811,765,884,743,129,4280,-15820,-1528,-980,-126,-76
991,790,758,885,744,128,4200,-15888,-1592,-990,-119,-85
994,791,758,883,745,123,4352,-15964,-1596,-1011,-128,-101
997,790,762,881,746,122,4152,-15916,-1468,-986,-160,-84
1000,790,756,882,749,127,4204,-15892,-1464,-1003,-158,-104
1003,789,746,884,745,131,4284,-15812,-1520,-1011,-199,-81
1006,783,754,886,743,128,4208,-15852,-1528,-1030,-193,-83
1009,787,755,882,741,127,4276,-15968,-1384,-1005,-159,-74
1012,785,757,883,745,123,4264,-15924,-1560,-1013,-200,-66
1015,789,752,882,742,128,4196,-15948,-1460,-1018,-211,-58
1018,787,752,880,748,128,4272,-15960,-1424,-1001,-184,-82
1021,786,754,886,746,123,4384,-15888,-1384,-984,-220,-64
1024,793,754,880,742,123,4372,-15884,-1548,-996,-193,-75
1027,783,753,880,741,123,4208,-15844,-1504,-999,-198,-78
1030,791,757,879,750,125,4280,-15872,-1540,-1008,-191,-60
1033,790,753,880,749,126,4344,-15876,-1388,-1001,-204,-66
1036,788,751,883,749,125,4300,-15840,-1360,-990,-200,-48
1039,786,755,880,743,129,4164,-15700,-1572,-991,-178,-66
1042,793,759,879,749,122,4340,-15800,-1420,-987,-175,-61
1045,790,747,882,747,122,4228,-15792,-1492,-1006,-183,-64
1048,795,755,889,745,124,4324,-15736,-1420,-1015,-181,-75
1051,783,753,882,742,128,4256,-15816,-1488,-1007,-167,-80
1054,794,756,887,750,128,4316,-15900,-1556,-1067,-210,-44
1057,786,759,884,747,124,4312,-15840,-1504,-1034,-184,-67
1060,795,754,884,743,128,4208,-15828,-1536,-1058,-189,-61
1063,801,756,889,744,125,4192,-15844,-1612,-1093,-235,-87
1066,797,757,882,741,126,4192,-15844,-1536,-1114,-229,-66
1069,796,757,885,741,127,4272,-15836,-1620,-1147,-213,-71
1072,798,762,885,739,127,4248,-15928,-1592,-1161,-255,-81
1075,793,758,885,743,117,4144,-15872,-1508,-1189,-283,-102
1078,795,763,897,737,128,4176,-15908,-1748,-1209,-288,-72
1081,797,767,887,742,124,4240,-15892,-1636,-1220,-287,-97
1084,787,759,880,740,128,4352,-16076,-1608,-1251,-296,-95
1087,793,763,885,735,118,4340,-16000,-1524,-1211,-223,-96
1090,791,763,886,738,125,4312,-16036,-1576,-1238,-302,-96
1093,795,766,888,739,122,4316,-16008,-1576,-1239,-317,-135
1096,798,767,885,749,125,4264,-16052,-1604,-1200,-286,-92
1099,794,767,883,740,128,4236,-16000,-1632,-1203,-277,-130
1102,789,766,894,739,128,4332,-16036,-1672,-1193,-245,-104
1105,789,761,885,738,123,4372,-16000,-1472,-1133,-246,-94
1108,788,760,883,739,123,4316,-15900,-1472,-1182,-275,-78
1111,786,757,885,746,118,4500,-16064,-1448,-1142,-225,-100
1114,793,762,885,741,121,4432,-15988,-1684,-1121,-219,-111
1117,788,755,880,736,128,4488,-16056,-1624,-1113,-201,-113
1120,791,757,886,741,126,4300,-15996,-1560,-1077,-219,-94
1123,784,753,884,742,126,4520,-15868,-1344,-1048,-203,-113
1126,789,759,880,743,124,4532,-15880,-1588,-1042,-168,-120
1129,787,752,880,740,122,4488,-15988,-1680,-1047,-158,-121
1132,794,754,883,743,125,4504,-15896,-1520,-1038,-167,-104
1135,791,752,880,746,128,4452,-15788,-1596,-1059,-174,-121
1138,785,769,883,740,123,4560,-15896,-1644,-1038,-171,-125
1141,789,752,880,741,124,4448,-15832,-1688,-1043,-216,-144
1144,794,752,886,745,121,4500,-15880,-1580,-1056,-192,-151
1147,789,754,882,741,125,4472,-15932,-1588,-1060,-238,-166
1150,794,756,880,741,121,4428,-15924,-1740,-1040,-230,-120
1153,788,755,883,744,124,4512,-16032,-1612,-1051,-203,-162
1156,800,756,884,752,123,4452,-15960,-1560,-1034,-176,-149
1159,800,753,880,747,121,4576,-16108,-1656,-1036,-162,-157
1162,790,757,880,736,121,4456,-15980,-1572,-1066,-171,-120
1165,790,752,887,742,128,4368,-15944,-1584,-1033,-134,-149
1168,793,757,882,747,127,4472,-16008,-1644,-1074,-121,-135
1171,787,754,883,743,123,4492,-16036,-1528,-1034,-118,-128
1174,790,765,883,742,121,4480,-16080,-1536,-1051,-108,-123
1177,790,755,881,745,123,4500,-15932,-1688,-1072,-113,-112
1180,790,758,891,746,126,4560,-16020,-1848,-1056,-126,-108
1183,791,752,887,739,128,4604,-16044,-1680,-1037,-111,-91
1186,784,752,885,738,125,4572,-16028,-1568,-1081,-119,-75
1189,787,755,878,743,119,4508,-16008,-1760,-1039,-118,-99
1192,784,752,879,741,123,4560,-15892,-1532,-1032,-95,-95
1195,789,751,886,743,126,4608,-15904,-1568,-1037,-81,-78
1198,786,752,880,742,123,4640,-15908,-1552,-1020,-62,-89
1201,786,749,878,750,125,4700,-15788,-1672,-1021,-53,-87
1204,786,753,897,750,126,4596,-15924,-1620,-1008,-1,-69
1207,787,752,880,743,121,4568,-15848,-1636,-1022,22,-84
1210,787,751,880,747,122,4572,-15788,-1624,-972,3,-52
1213,785,751,880,752,120,4456,-15820,-1684,-978,-6,-31
1216,788,752,889,748,126,4608,-15824,-1476,-967,-62,-21
1219,787,752,880,746,119,4616,-15820,-1660,-994,-5,-58
1222,791,752,882,739,123,4540,-15816,-1560,-1019,-12,-66
1225,791,752,883,745,118,4528,-15852,-1724,-1028,-10,-66
1228,791,760,880,743,122,4444,-15884,-1628,-1029,-56,-65
1231,789,753,885,746,121,4444,-15764,-1656,-1037,-116,-57
1234,800,759,883,741,128,4516,-15844,-1556,-1019,-159,-45
1237,791,758,880,742,125,4504,-15840,-1584,-1050,-190,-55
1240,794,759,885,746,126,4524,-15916,-1608,-1026,-238,-67
1243,791,754,881,746,126,4500,-15908,-1708,-1029,-225,-66
1246,788,758,880,752,121,4464,-16004,-1508,-974,-206,-57
1249,794,757,881,739,121,4460,-16008,-1748,-990,-181,-64
1252,787,765,887,741,119,4448,-16068,-1784,-929,-177,-44
1255,795,763,885,741,124,4544,-16084,-1752,-925,-89,-48
1258,793,759,885,739,121,4496,-15976,-1776,-874,-56,-59
1261,794,762,881,743,122,4464,-16088,-1744,-865,-64,-13
1264,787,758,882,739,123,4316,-16132,-1792,-868,-85,-56
1267,791,762,882,743,119,4456,-16012,-1660,-807,-24,-62
1270,788,758,884,739,123,4316,-16132,-1748,-796,-35,-58
1273,793,761,886,743,122,4348,-16088,-1728,-803,-57,-75
1276,787,765,880,734,128,4504,-16136,-1788,-784,-50,-78
1279,787,755,881,747,125,4412,-16008,-1664,-739,-43,-51
1282,786,763,884,741,121,4400,-16072,-1800,-718,-45,-42
1285,791,762,885,748,119,4408,-16080,-1832,-717,-25,-55
1288,786,755,881,752,122,4376,-16024,-1744,-717,-38,-36
1291,784,754,887,741,120,4384,-15940,-1916,-687,-52,-31
1294,787,757,881,737,126,4404,-16044,-1764,-695,-50,-48
1297,784,754,883,738,126,4468,-16012,-1752,-670,-31,-37
1300,790,754,890,747,121,4360,-15964,-1836,-661,-21,-38
1303,784,750,885,742,123,4292,-16056,-1640,-632,-14,-34
1306,786,752,899,743,122,4328,-16068,-1644,-639,12,-60
1309,789,751,896,751,123,4296,-16024,-1956,-618,-29,-51
1312,789,752,885,748,123,4304,-16008,-1736,-616,-23,-63
1315,791,752,907,743,114,4340,-15944,-1664,-601,-23,-66
1318,791,753,889,747,123,4268,-15812,-1588,-602,-5,-56
1321,790,752,889,746,123,4388,-15908,-1740,-606,-31,-83
1324,783,751,881,743,125,4368,-15928,-1680,-619,-68,-71
1327,786,752,880,748,117,4384,-15812,-1596,-605,-57,-75
1330,787,756,886,746,125,4376,-15800,-1700,-609,-83,-93
1333,789,752,881,745,116,4284,-15820,-1612,-617,-54,-83
1336,791,754,881,742,123,4208,-15864,-1588,-622,-117,-78
1339,789,756,881,743,120,4408,-16000,-1784,-620,-107,-101
1342,790,753,883,748,123,4320,-15988,-1700,-626,-131,-93
1345,791,759,884,741,118,4268,-15924,-1636,-628,-117,-99
1348,785,753,882,746,124,4448,-15872,-1740,-669,-134,-104
1351,791,753,884,741,116,4440,-15852,-1572,-674,-139,-136
1354,790,759,881,752,123,4416,-15860,-1676,-688,-159,-114
1357,791,755,882,743,121,4312,-15892,-1628,-703,-149,-115
1360,794,752,887,745,122,4272,-16008,-1520,-731,-196,-129
1363,784,755,884,739,122,4228,-15960,-1648,-732,-226,-134
1366,794,752,882,747,124,4260,-15880,-1576,-741,-239,-150
1369,794,753,885,739,117,4300,-15928,-1560,-767,-275,-113
1372,787,750,880,745,119,4212,-15856,-1588,-775,-278,-135
1375,787,751,885,749,123,4284,-15864,-1520,-793,-280,-115
1378,787,752,885,763,125,4332,-15916,-1524,-787,-257,-82
1381,788,754,885,742,128,4296,-15828,-1576,-795,-275,-79
1384,784,752,882,750,122,4328,-15716,-1688,-822,-267,-60
1387,786,748,886,745,125,4228,-15768,-1624,-838,-240,-65
1390,786,752,880,747,121,4208,-15908,-1492,-840,-254,-71
1393,788,752,883,746,118,4244,-15916,-1716,-865,-266,-69
1396,788,752,891,745,119,4280,-15864,-1484,-853,-266,-86
1399,795,752,883,743,124,4264,-15740,-1664,-854,-324,-93
1402,795,752,886,746,120,4336,-15864,-1456,-886,-326,-82
1405,793,752,880,745,121,4228,-15752,-1508,-874,-336,-95
1408,793,749,880,750,123,4212,-15592,-1408,-888,-399,-87
1411,794,752,884,749,122,4292,-15696,-1544,-909,-392,-67
1414,791,752,885,743,122,4424,-15752,-1528,-903,-429,-73
1417,788,752,890,746,119,4360,-15736,-1572,-911,-425,-52
1420,790,752,884,752,121,4360,-15784,-1492,-946,-431,-61
1423,790,743,880,745,128,4316,-15796,-1496,-929,-412,-69
1426,791,754,881,748,124,4264,-15804,-1492,-985,-402,-80
1429,795,752,881,746,126,4356,-15844,-1616,-970,-437,-79
1432,790,754,879,742,119,4264,-15876,-1508,-986,-536,-77
1435,795,752,881,748,118,4192,-15808,-1508,-1020,-529,-85
1438,797,759,880,743,118,4236,-15748,-1652,-1008,-465,-45
1441,798,754,880,743,129,4228,-15712,-1508,-1005,-473,-35
1444,799,752,880,741,125,4284,-15664,-1392,-1060,-480,-39
1447,794,752,887,739,117,4180,-15600,-1492,-1072,-507,-33
1450,788,755,887,744,125,4264,-15720,-1688,-1088,-502,-35
1453,794,754,880,741,119,4132,-15712,-1568,-1076,-474,-4
1456,798,757,882,743,125,4180,-15856,-1608,-1133,-533,-11
1459,793,752,885,749,124,4200,-15716,-1520,-1138,-517,5
1462,794,759,881,742,122,4240,-15812,-1656,-1139,-512,-31
1465,801,759,881,740,125,3864,-15760,-1404,-1211,-653,-35
1468,793,758,884,740,123,4192,-15716,-1732,-1242,-604,-48
1471,805,759,885,738,122,4168,-15908,-1392,-1249,-568,-80
1474,798,765,881,740,122,4120,-15804,-1444,-1259,-592,-43
1477,794,761,883,740,126,4168,-15800,-1600,-1264,-520,-23
1480,793,762,883,744,121,4336,-15700,-1756,-1515,-600,-102
1483,794,760,880,739,123,4440,-15796,-1536,-1578,-229,-194
1486,791,761,880,738,122,4408,-15716,-1252,-1652,305,-362
1489,791,762,880,741,126,4252,-15808,-1768,-1487,92,-213
1492,794,766,890,723,125,4084,-16004,-1524,-1480,-181,-181
1495,787,759,885,743,127,4124,-15892,-1696,-1464,-309,-112
1498,794,759,880,742,125,4132,-15880,-1320,-1413,47,-119
1501,787,758,903,746,128,4296,-15992,-1488,-1330,113,-107
1504,796,762,880,743,128,4032,-15960,-1556,-1303,-108,-47
1507,797,758,880,743,127,4124,-15896,-1776,-1357,-562,-41
1510,797,761,886,741,127,4168,-15860,-1636,-1432,-553,-127
1513,791,753,879,738,125,4336,-15896,-1744,-1452,-751,-112
1516,799,757,881,741,125,4344,-15756,-1700,-1547,-737,-175
1519,801,758,885,746,124,4388,-15884,-1644,-1564,-498,-222
1522,792,754,883,742,128,4388,-15884,-1680,-1489,-479,-235
1525,793,756,881,744,128,4488,-15952,-1732,-1390,-411,-163
1528,794,753,886,744,122,4328,-16008,-1996,-1440,-498,-207
1531,795,755,880,750,121,4516,-15920,-1596,-1359,-368,-110
1534,796,752,881,739,122,4292,-16076,-1700,-1303,-153,-121
1537,794,753,886,740,125,4568,-15912,-1640,-1271,-312,-149
1540,795,754,881,745,126,4384,-15896,-1792,-1335,-405,-171
1543,794,753,884,742,125,4276,-16020,-1828,-1329,-592,-165
1546,795,754,881,742,123,4372,-16136,-1660,-1304,-621,-160
1549,793,752,878,759,125,4336,-16088,-1932,-1298,-447,-191
1552,797,751,883,746,126,4468,-16184,-1696,-1334,-772,-149
1555,799,752,885,746,126,4496,-16076,-1884,-1294,-641,-198
1558,794,753,895,745,128,4544,-16144,-1684,-1240,-280,-184
1561,807,754,880,747,127,4512,-16160,-1688,-1194,-222,-156
1564,797,752,885,757,122,4456,-16072,-1700,-1158,-180,-143
1567,801,752,886,742,123,4384,-16116,-1864,-1181,-226,-155
1570,799,753,880,738,131,4440,-16144,-1696,-1142,-225,-169
1573,806,757,881,743,121,4408,-16036,-1744,-1173,-302,-165
1576,803,754,881,743,128,4336,-15884,-2028,-1217,-461,-195
1579,807,761,880,743,124,4520,-15884,-1604,-1176,32,-221
1582,803,756,886,746,126,4556,-15960,-1820,-1035,274,-202
1585,803,758,885,742,130,4528,-15932,-1816,-1127,72,-187
1588,804,753,885,747,127,4360,-16032,-1828,-1079,-222,-128
1591,806,767,885,743,126,4472,-16012,-1764,-1080,-75,-108
1594,805,754,889,751,129,4592,-15960,-1680,-1109,93,-179
1597,807,755,885,745,128,4556,-15876,-1600,-1106,72,-147
1600,804,759,887,750,121,4592,-15948,-1700,-1135,-1,-142
1603,801,766,883,747,128,4484,-15944,-1612,-1129,-41,-159
1606,802,768,891,749,128,4468,-15824,-1796,-1180,-169,-161
1609,795,763,884,750,125,4416,-15836,-1768,-1211,-254,-132
1612,795,766,888,752,127,4524,-15816,-1712,-1225,-374,-178
1615,790,766,884,743,128,4480,-15852,-1760,-1234,-456,-182
1618,794,763,883,751,128,4572,-15684,-1712,-1250,-351,-141
1621,789,758,880,747,128,4620,-15792,-1680,-1266,-283,-168
1624,793,763,886,747,125,4648,-15876,-1712,-1251,-279,-144
1627,786,759,879,754,128,4620,-15648,-1760,-1210,-285,-152
1630,790,754,880,750,128,4540,-15784,-1752,-1180,-143,-131
1633,789,759,880,752,128,4364,-15780,-2060,-1268,-424,-163
1636,783,758,881,752,128,4528,-15760,-1676,-1207,-230,-130
1639,787,754,880,749,128,4552,-15844,-1812,-1164,-65,-144
1642,785,757,880,751,123,4612,-15832,-1992,-1115,36,-134
1645,786,754,880,751,128,4544,-15928,-1744,-1120,98,-176
1648,787,757,885,752,126,4364,-15800,-1820,-1089,88,-162
1651,787,753,881,755,126,4284,-15852,-1860,-1053,81,-128
1654,784,753,883,753,128,4352,-15872,-1736,-1065,27,-124
1657,785,754,881,751,126,4280,-15816,-1904,-1091,7,-128
1660,786,752,883,752,131,4380,-15880,-1840,-1095,6,-124
1663,789,752,877,747,128,4356,-15812,-1604,-1070,69,-116
1666,784,752,885,750,129,4384,-15968,-1720,-1061,156,-125
1669,789,759,880,746,126,4372,-15828,-1700,-1085,84,-166
1672,787,753,882,752,124,4316,-15916,-1672,-1074,82,-148
1675,785,751,885,749,127,4348,-15900,-1640,-1063,89,-172
1678,784,752,885,752,129,4308,-15980,-1908,-1025,153,-134
1681,785,752,880,752,128,4480,-15964,-1720,-993,183,-162
1684,783,753,880,747,129,4408,-15996,-1920,-967,210,-171
1687,785,752,882,752,125,4316,-15912,-1864,-997,146,-190
1690,784,754,881,745,122,4452,-15900,-1928,-980,188,-183
1693,784,758,880,747,128,4528,-15944,-1844,-1009,197,-206
1696,787,756,880,749,129,4488,-15936,-1812,-969,171,-216
1699,784,758,882,746,128,4404,-15972,-1676,-946,168,-240
1702,784,757,880,750,125,4452,-15896,-1788,-958,145,-254
1705,788,762,886,747,123,4412,-15916,-1668,-945,71,-269
1708,789,758,881,749,125,4404,-15984,-1744,-923,60,-265
1711,790,761,881,750,128,4472,-15972,-1672,-940,36,-295
1714,794,765,890,746,126,4536,-15956,-1704,-919,-29,-306
1717,793,762,885,751,128,4416,-15928,-1708,-898,-1,-314
1720,800,758,883,752,125,4500,-15944,-1720,-884,17,-327
1723,797,761,887,742,130,4540,-15908,-1752,-883,35,-319
1726,790,752,882,746,124,4508,-15996,-1728,-870,-29,-314
1729,795,766,889,743,128,4348,-16000,-1688,-881,-86,-331
1732,796,763,886,743,126,4352,-15996,-1584,-867,-98,-308
1735,795,758,886,746,126,4296,-15888,-1740,-861,-98,-319
1738,785,762,880,746,128,4404,-15992,-1828,-847,-75,-301
1741,795,761,889,746,128,4268,-15852,-1904,-860,-272,-324
1744,794,753,890,741,129,4352,-15872,-1780,-810,-239,-307
1747,797,758,885,751,129,4208,-15900,-1876,-787,-241,-269
1750,788,755,887,749,122,4252,-15904,-1884,-719,-173,-258
1753,784,757,887,742,125,4364,-15796,-1932,-750,-91,-258
1756,789,757,889,748,125,4372,-15888,-1984,-755,-129,-252
1759,790,756,884,745,129,4408,-15852,-1812,-713,-143,-215
1762,785,759,887,750,127,4352,-15648,-1868,-747,-102,-227
1765,787,759,889,747,129,4196,-15752,-1964,-733,20,-297
1768,788,762,883,746,128,4340,-15848,-1884,-697,-35,-278
1771,791,761,889,743,126,4236,-15804,-1844,-686,-32,-277
1774,787,763,887,743,129,4344,-15868,-1860,-655,24,-239
1777,789,757,884,744,128,4304,-15780,-1896,-645,-41,-226
1780,784,749,885,748,130,4288,-15804,-2032,-611,-48,-224
1783,794,764,885,750,125,4252,-15892,-1932,-577,-53,-181
1786,791,761,891,746,127,4388,-15916,-2200,-561,-72,-202
1789,793,758,890,741,124,4100,-15732,-1892,-592,-125,-218
1792,795,761,887,743,128,4192,-15784,-1920,-598,-134,-213
1795,793,763,890,742,123,4240,-15728,-1980,-625,-231,-251
1798,791,765,893,745,132,4284,-15716,-2128,-656,-180,-214
1801,788,767,888,744,131,4336,-15676,-1756,-664,-65,-246
1804,785,756,882,746,129,4300,-15708,-1944,-673,-76,-251
1807,793,747,885,746,132,4204,-15856,-1972,-674,-75,-254
1810,786,757,887,746,131,4328,-15800,-1876,-661,-94,-264
1813,797,759,883,745,128,4308,-15756,-1908,-724,-126,-287
1816,787,757,883,746,128,4228,-15768,-2260,-757,-170,-275
1819,790,757,885,751,127,4368,-15732,-1896,-777,-143,-298
1822,794,763,893,749,131,4368,-15884,-1984,-818,-202,-312
1825,795,764,887,749,128,4352,-15844,-1904,-864,-242,-318
1828,794,759,883,735,134,4372,-15980,-2032,-926,-270,-355
1831,798,759,885,751,128,4392,-15952,-2076,-917,-316,-330
1834,795,756,885,753,128,4376,-15984,-1752,-917,-319,-380
1837,787,757,885,752,128,4384,-15884,-1996,-929,-319,-392
1840,795,752,882,752,131,4360,-15808,-1912,-935,-305,-414
1843,797,752,883,752,130,4472,-15860,-1884,-983,-322,-444
1846,799,758,886,752,129,4344,-15964,-1876,-940,-285,-454
1849,785,759,884,753,127,4372,-15920,-1764,-955,-345,-487
1852,796,752,885,752,129,4320,-15932,-1924,-958,-333,-464
1855,794,754,888,749,128,4396,-15988,-1952,-927,-403,-468
1858,794,749,891,753,133,4284,-15872,-1812,-962,-425,-498
1861,795,752,882,752,134,4252,-15964,-1948,-951,-383,-468
1864,791,752,884,748,128,4232,-15928,-1824,-913,-401,-479
1867,798,754,887,751,125,4268,-15892,-1776,-915,-450,-458
1870,795,752,880,750,128,4272,-15872,-1784,-981,-338,-479
1873,790,752,885,747,128,4256,-15924,-2076,-918,-390,-443
1876,789,752,891,752,131,4340,-15896,-1804,-902,-263,-451
1879,791,752,885,752,130,4296,-15908,-2104,-875,-475,-369
1882,793,750,886,743,128,4212,-15860,-1812,-992,-299,-493
1885,791,752,884,752,129,4360,-15884,-1776,-974,-283,-460
1888,788,770,882,747,132,4220,-16012,-2140,-1023,-433,-483
1891,789,753,885,743,128,4288,-15972,-1920,-1025,-198,-481
1894,790,751,880,745,132,4136,-15892,-2228,-1035,-651,-463
1897,795,751,886,752,128,4276,-15908,-1892,-1084,-587,-514
1900,790,752,884,747,133,4388,-15956,-1824,-1032,-541,-471
1903,790,754,882,752,130,4408,-15856,-2224,-1063,-591,-481
1906,794,752,881,763,131,4384,-15964,-1812,-1045,-550,-480
1909,795,755,881,745,128,4428,-15840,-1928,-1008,-562,-432
1912,789,752,887,747,128,4448,-16052,-1916,-968,-457,-419
1915,790,756,883,748,128,4588,-15932,-1896,-945,-389,-416
1918,789,752,884,745,132,4524,-16048,-1996,-912,-365,-431
1921,789,754,886,747,132,4560,-16028,-1976,-934,-311,-417
1924,786,749,883,741,132,4552,-16068,-1920,-883,-284,-436
1927,788,746,880,750,128,4580,-15900,-1784,-888,-381,-425
1930,791,749,880,758,129,4432,-15888,-2048,-886,-480,-448
1933,789,749,881,745,133,4556,-15992,-1844,-900,-563,-426
1936,791,750,887,743,128,4516,-15940,-1752,-919,-606,-463
1939,810,764,880,757,131,4548,-16004,-1848,-883,-573,-472
1942,789,752,886,745,133,4464,-16044,-1736,-865,-528,-462
1945,790,752,887,747,132,4536,-16024,-2008,-829,-554,-501
1948,794,752,892,750,130,4620,-15884,-1852,-818,-499,-469
1951,786,752,881,743,129,4504,-15988,-1744,-795,-528,-454
1954,791,756,885,742,129,4660,-16024,-1720,-756,-504,-480
1957,786,754,885,743,128,4600,-15960,-1944,-748,-462,-460
1960,789,755,884,741,130,4652,-16000,-1960,-704,-479,-484
1963,791,752,885,739,134,4648,-15928,-1912,-703,-446,-468
1966,786,757,899,739,129,4672,-15972,-1796,-664,-453,-477
1969,789,752,883,746,128,4716,-16020,-1672,-669,-437,-479
1972,790,752,890,740,129,4480,-15900,-1820,-634,-459,-475
1975,785,752,885,740,130,4596,-15780,-1824,-647,-468,-485
1978,786,752,885,741,128,4688,-15884,-1848,-622,-496,-456
1981,789,752,890,741,134,4684,-15836,-1884,-587,-506,-439
1984,785,752,886,741,131,4652,-15852,-1800,-585,-564,-443
1987,793,751,885,745,128,4724,-15888,-1728,-583,-553,-456
1990,785,753,890,743,128,4720,-15832,-1712,-573,-586,-416
1993,789,752,886,737,131,4744,-15848,-1776,-582,-601,-450
1996,785,752,893,732,130,4792,-15848,-1908,-603,-582,-412
1999,789,754,886,741,132,4680,-15912,-1740,-596,-557,-441
2002,792,752,883,744,132,4744,-15860,-1864,-617,-538,-411
2005,789,752,885,739,131,4840,-15812,-1732,-606,-547,-419
2008,789,750,890,737,128,4916,-15840,-1816,-612,-532,-386
2011,787,752,883,743,128,4892,-15900,-1672,-588,-530,-399
2014,794,752,887,746,131,4872,-15868,-1624,-625,-529,-380
2017,787,761,884,742,129,4844,-15820,-1764,-612,-532,-378
2020,804,752,883,745,133,4848,-16016,-1800,-609,-517,-368
2023,790,752,887,738,130,4780,-15828,-1716,-626,-529,-398
2026,794,753,885,769,129,4784,-15852,-1772,-631,-563,-386
2029,794,757,883,738,128,4712,-15808,-1872,-631,-541,-389
2032,790,759,885,742,128,4816,-15816,-1744,-646,-588,-365
2035,799,752,883,742,130,4888,-15856,-1664,-664,-543,-380
2038,804,752,899,746,134,4840,-15864,-1696,-687,-554,-408
2041,788,753,885,742,133,4772,-15808,-1680,-678,-553,-372
2044,794,752,880,747,127,4824,-15804,-1712,-712,-559,-393
2047,790,754,885,762,128,4824,-15752,-1548,-707,-534,-377
2050,791,739,885,747,128,4928,-15804,-1540,-744,-550,-417
2053,789,752,886,741,133,4912,-15692,-1520,-731,-501,-397
2056,810,752,884,741,131,4772,-15704,-1516,-752,-503,-412
2059,785,752,883,745,128,4824,-15712,-1444,-776,-499,-405
2062,789,752,885,742,134,4716,-15676,-1540,-820,-472,-404
2065,787,750,885,759,129,4852,-15768,-1732,-829,-433,-373
2068,790,755,883,745,130,5276,-15668,-1980,-939,-207,-417
2071,785,751,885,745,131,4852,-15640,-1252,-1121,19,-595
2074,789,756,883,784,128,4892,-15736,-1428,-1030,103,-562
2077,784,752,885,741,128,4548,-15832,-1620,-1021,-335,-483
2080,786,755,883,742,130,4524,-15732,-1524,-1029,-539,-449
2083,786,752,885,741,134,4596,-15796,-1516,-980,-514,-346
2086,791,752,886,745,129,4688,-15716,-1392,-1022,-347,-387
2089,791,752,880,740,129,4620,-15748,-1520,-1007,-447,-313
2092,784,753,880,739,131,4700,-15764,-1432,-1064,-485,-330
2095,788,752,883,751,128,4760,-15672,-1660,-1100,-523,-338
2098,789,750,880,741,133,4708,-15828,-1504,-1153,-431,-410
2101,790,752,887,742,133,4984,-15596,-1540,-1181,-448,-386
2104,786,750,882,784,130,4824,-15608,-1540,-1189,-418,-434
2107,786,752,903,741,128,4860,-15744,-1424,-1174,-479,-407
2110,784,752,888,758,127,4624,-15752,-1532,-1094,-462,-350
2113,787,753,881,741,134,4720,-15672,-1308,-1110,-484,-353
2116,789,747,884,746,132,4640,-15668,-1528,-1076,-646,-221
2119,789,752,882,739,131,4812,-15752,-1576,-1101,-628,-273
2122,789,751,889,741,131,4908,-15744,-1444,-1155,-453,-301
2125,791,754,883,740,133,4976,-15680,-1416,-1101,-220,-342
2128,790,761,886,734,130,4812,-15732,-1564,-1110,-257,-314
2131,791,762,889,738,128,4948,-15812,-1564,-1102,-309,-312
2134,801,763,886,739,129,4700,-15812,-1416,-1046,-273,-271
2137,791,762,890,737,130,4828,-15816,-1444,-1063,-152,-273
2140,794,765,884,735,132,4832,-15840,-1456,-1046,-54,-279
2143,789,762,890,737,129,4768,-15836,-1476,-1025,-119,-266
2146,789,761,885,735,131,4712,-15812,-1540,-1035,-110,-284
2149,789,763,885,735,129,4880,-15840,-1648,-1061,-127,-297
2152,799,774,882,723,130,4684,-15808,-1488,-1048,11,-195
2155,784,762,887,736,133,4864,-15800,-1576,-1084,93,-270
2158,789,766,887,735,138,4616,-15928,-1620,-1105,-44,-275
2161,789,759,883,735,134,4824,-15916,-1536,-1145,206,-355
2164,793,759,887,727,135,4940,-15812,-1836,-1118,73,-313
2167,789,759,882,735,131,4708,-15916,-1388,-1102,294,-347
2170,789,761,880,761,129,4756,-15976,-1788,-1106,-7,-299
2173,789,761,883,736,129,4516,-15856,-1428,-1157,7,-330
2176,787,758,884,737,134,4812,-15988,-1668,-1137,-96,-359
2179,784,760,893,737,132,4664,-15840,-1696,-1098,-106,-286
2182,787,757,886,738,132,4824,-15832,-1524,-1171,-103,-360
2185,785,761,887,737,134,4624,-15836,-1648,-1106,-206,-290
2188,786,758,882,740,133,4644,-15864,-1732,-1109,-328,-283
2191,784,755,883,737,129,4728,-15988,-1688,-1140,-428,-240
2194,789,761,883,738,133,4800,-15872,-1620,-1079,-315,-259
2197,787,753,881,738,132,4764,-15884,-1544,-1052,-327,-232
2200,783,754,881,739,130,4772,-15884,-1492,-1089,-277,-289
2203,785,754,884,742,133,4756,-15908,-1656,-1008,-244,-240
2206,787,762,890,749,126,4812,-15816,-1620,-998,-226,-242
2209,790,755,883,739,144,4848,-15900,-1400,-958,-177,-198
2212,791,764,887,745,139,4804,-16040,-1428,-946,-58,-232
2215,789,754,886,740,141,4916,-15848,-1520,-936,1,-238
2218,790,761,883,729,144,4856,-16016,-1628,-882,55,-232
2221,788,757,893,738,142,4864,-15852,-1588,-885,87,-233
2224,793,762,886,743,138,4916,-15816,-1588,-872,128,-239
2227,789,762,885,745,139,4904,-15772,-1460,-893,111,-235
2230,790,762,886,737,137,4868,-15872,-1572,-857,228,-243
2233,787,762,887,738,137,4844,-15964,-1668,-849,174,-216
2236,787,762,885,735,144,4828,-15744,-1700,-892,273,-222
2239,796,762,883,735,141,4828,-15804,-1748,-861,225,-169
2242,796,768,889,741,141,4780,-15776,-1532,-897,392,-277
2245,797,765,891,738,134,4796,-15760,-1624,-884,318,-217
2248,793,767,887,731,134,4752,-15744,-1860,-864,223,-195
2251,799,770,890,738,135,4760,-15844,-1656,-876,243,-218
2254,798,769,891,734,134,4676,-15804,-1992,-854,153,-125
2257,792,767,889,731,141,4812,-15840,-1552,-815,316,-203
2260,790,772,884,727,137,4796,-15744,-1992,-830,63,-135
2263,789,770,887,733,139,4700,-15916,-1756,-886,-70,-125
2266,794,770,883,730,134,4704,-15828,-1772,-860,-14,-149
2269,790,767,883,731,130,4688,-15828,-1876,-878,-13,-148
2272,798,768,886,734,142,4860,-15760,-2020,-831,4,-115
2275,789,765,882,739,135,4784,-15864,-1700,-854,-20,-110
2278,789,762,883,731,137,4720,-15864,-1900,-838,21,-134
2281,785,763,883,733,139,4720,-15824,-1600,-800,101,-125
2284,784,762,886,737,138,4764,-15784,-1816,-800,45,-114
2287,788,767,885,740,130,4648,-15764,-1716,-774,85,-111
2290,795,762,887,736,138,4696,-15764,-1856,-742,111,-108
2293,794,763,881,735,131,4624,-15800,-1724,-722,131,-82
2296,785,759,885,738,131,4768,-15760,-1672,-718,137,-95
2299,790,764,885,738,134,4676,-15836,-1604,-696,151,-78
2302,786,762,880,718,135,4712,-15760,-1896,-698,156,-81
2305,787,763,881,739,135,4640,-15684,-1896,-683,159,-89
2308,790,763,882,741,131,4684,-15744,-1820,-677,204,-87
2311,790,759,888,739,134,4708,-15744,-1776,-681,190,-60
2314,789,757,885,739,135,4844,-15888,-1688,-694,182,-60
2317,790,763,892,741,137,4768,-15808,-1800,-703,210,-65
2320,788,762,885,738,135,4720,-15844,-1828,-721,206,-69
2323,789,759,887,738,138,4864,-15840,-1892,-758,196,-102
2326,795,767,886,743,133,4796,-15784,-1764,-773,164,-79
2329,790,766,885,736,135,4756,-15852,-1900,-793,110,-94
2332,788,768,889,741,134,4860,-15932,-1872,-831,150,-109
2335,789,768,898,735,133,4836,-15900,-1952,-844,196,-127
2338,793,768,891,741,136,4888,-15748,-1784,-871,212,-133
2341,797,766,886,739,136,4764,-15724,-1916,-902,131,-133
2344,791,763,888,738,138,4840,-15892,-1912,-934,89,-165
2347,789,767,890,743,131,4824,-15804,-1780,-942,130,-161
2350,794,763,885,741,131,4760,-15908,-1804,-897,267,-203
2353,793,764,881,739,133,4788,-15804,-2000,-907,69,-161
2356,791,767,889,741,138,4608,-15840,-1888,-897,-30,-147
2359,795,764,889,741,134,4796,-15900,-1964,-878,4,-164
2362,795,761,885,741,133,4772,-15808,-1896,-881,-21,-135
2365,788,766,887,739,135,4668,-15876,-1916,-856,37,-156
2368,792,765,887,765,135,4652,-15784,-1808,-838,-60,-132
2371,791,764,886,739,133,4676,-15792,-1932,-828,-116,-111
2374,789,761,885,739,138,4672,-15872,-1936,-840,-147,-106
2377,789,760,887,743,134,4700,-15732,-1936,-840,-121,-128
2380,788,752,889,743,133,4680,-15764,-1992,-832,-75,-111
2383,791,753,887,742,136,4716,-15724,-1968,-822,-50,-90
2386,799,753,886,746,134,4696,-15804,-1996,-810,-101,-108
2389,787,751,883,747,131,4768,-15812,-1900,-808,-70,-121
2392,789,754,885,746,134,4768,-15748,-1960,-787,-54,-123
2395,794,754,886,746,134,4720,-15740,-1872,-780,-56,-100
2398,788,752,886,749,138,4700,-15788,-1896,-790,-58,-87
2401,791,752,890,747,133,4924,-15732,-1924,-794,-40,-75
2404,796,752,890,756,139,4856,-15744,-1904,-796,-80,-89
2407,790,752,894,748,131,4768,-15740,-1840,-797,-91,-65
2410,795,753,886,749,135,4900,-15724,-1884,-795,-95,-67
2413,799,752,889,749,132,4740,-15712,-1896,-806,-112,-88
2416,794,741,891,751,136,4796,-15804,-1752,-823,-98,-61
2419,794,751,889,749,134,4892,-15720,-1928,-835,-125,-84
2422,784,751,879,748,134,4756,-15796,-1852,-821,-149,-71
2425,799,754,889,749,129,4736,-15644,-1848,-846,-115,-82
2428,795,752,887,747,131,4728,-15776,-1604,-850,-134,-91
2431,799,755,886,747,133,4752,-15764,-1924,-855,-156,-110
2434,797,754,889,747,134,4788,-15740,-1728,-879,-152,-88
2437,799,753,889,741,137,4632,-15732,-1820,-906,-143,-85
2440,801,752,895,747,133,4716,-15808,-1780,-909,-185,-97
2443,795,754,883,743,134,4692,-15832,-1844,-941,-186,-100
2446,797,757,882,763,132,4596,-15784,-1816,-914,-215,-100
2449,800,759,887,747,135,4648,-15816,-1832,-946,-200,-99
2452,796,758,882,751,131,4588,-15856,-1740,-940,-219,-73
2455,796,752,887,746,138,4564,-15900,-1816,-904,-250,-64
2458,797,752,883,742,139,4720,-15812,-1852,-919,-216,-71
2461,800,759,882,746,135,4572,-15916,-1960,-881,-243,-41
2464,800,761,882,747,135,4612,-15760,-1920,-862,-221,-29
2467,796,752,881,741,134,4580,-15872,-1644,-850,-205,-51
2470,797,754,885,742,133,4560,-15840,-1808,-839,-211,-44
2473,802,763,887,740,131,4556,-15856,-1724,-830,-183,-23
2476,797,758,891,746,132,4656,-15816,-1916,-796,-173,-22
2479,798,756,887,746,135,4708,-15776,-1620,-761,-173,-31
2482,809,755,883,747,133,4740,-15844,-1688,-748,-171,-13
2485,802,762,891,742,136,4712,-15788,-1700,-722,-159,9
2488,795,754,889,747,135,4628,-15820,-1760,-723,-149,18
2491,800,759,891,747,135,4760,-15736,-1716,-708,-148,23
2494,799,763,891,746,130,4752,-15800,-1664,-713,-139,2
2497,794,757,887,749,138,4708,-15716,-1696,-714,-124,20
2500,796,763,886,750,141,4740,-15760,-1456,-731,-145,11
2503,799,762,887,751,137,4872,-15804,-1660,-740,-118,16
2506,793,763,891,746,135,4828,-15696,-1648,-758,-151,12
2509,787,765,891,741,130,4788,-15732,-1696,-775,-132,8
2512,798,763,889,741,134,4696,-15848,-1588,-773,-158,-12
2515,796,767,890,742,138,4856,-15804,-1544,-770,-121,0
2518,793,760,882,742,135,4776,-15752,-1696,-800,-129,-37
2521,797,762,890,739,134,4820,-15752,-1676,-822,-150,-11
2524,797,762,884,740,139,4760,-15772,-1580,-780,-169,-26
2527,797,762,891,738,130,4764,-15760,-1756,-827,-203,-30
2530,791,757,882,743,134,4852,-15812,-1676,-791,-185,-57
2533,790,762,892,742,137,4704,-15780,-1676,-781,-188,-61
2536,794,759,881,745,141,4760,-15764,-1660,-768,-200,-52
2539,792,761,885,743,137,4872,-15868,-1700,-779,-223,-52
2542,799,763,893,747,139,4712,-15868,-1564,-793,-212,-55
2545,797,763,883,742,134,4744,-15800,-1632,-824,-208,-58
2548,797,761,886,746,141,4748,-15768,-1728,-781,-178,-49
2551,796,762,889,746,140,4776,-15780,-1652,-792,-178,-58
2554,795,759,883,742,133,4784,-15808,-1632,-822,-191,-50
2557,793,758,892,745,140,4692,-15824,-1716,-822,-208,-73
2560,793,762,881,745,135,4820,-15912,-1560,-809,-175,-40
2563,793,769,885,746,139,4732,-15888,-1720,-822,-173,-18
2566,794,763,891,746,135,4812,-15884,-1708,-822,-175,-25
2569,795,762,880,746,139,4752,-15852,-1628,-846,-196,-17
2572,790,758,880,742,134,4732,-15860,-1784,-811,-207,-12
2575,788,763,886,746,135,4712,-15876,-1812,-827,-183,-5
2578,790,766,880,746,137,4632,-15832,-1864,-802,-185,-3
2581,791,763,885,749,143,4640,-15880,-1796,-797,-194,9
2584,789,760,883,751,139,4680,-15788,-1844,-751,-175,37
2587,793,759,885,748,132,4720,-15852,-1724,-737,-177,43
2590,787,763,887,743,134,4736,-15852,-1796,-702,-190,23
2593,786,759,889,745,140,4636,-15780,-1700,-711,-189,12
2596,794,762,886,741,137,4712,-15824,-1752,-680,-186,15
2599,793,766,887,751,141,4640,-15828,-1712,-688,-199,13
2602,789,766,882,741,141,4620,-15708,-1728,-679,-185,28
2605,794,762,889,747,137,4676,-15776,-1684,-687,-204,41
2608,795,768,884,740,133,4672,-15784,-1840,-698,-209,13
2611,790,767,885,738,140,4776,-15784,-1840,-686,-223,25
2614,791,771,890,740,134,4708,-15844,-1816,-697,-210,17
2617,794,768,883,745,134,4660,-15784,-1656,-696,-217,7
2620,794,768,883,742,135,4772,-15752,-1640,-719,-199,-1
2623,792,766,883,743,140,4704,-15820,-1864,-706,-227,-2
2626,791,765,889,740,134,4656,-15760,-1784,-730,-227,4
2629,785,778,886,743,138,4788,-15796,-1740,-758,-216,-17
2632,789,763,885,747,133,4628,-15740,-1788,-750,-272,-22
2635,797,766,889,734,135,4760,-15772,-1792,-773,-238,-39
2638,795,765,884,746,137,4784,-15864,-1776,-789,-242,-45
2641,791,761,883,742,139,4724,-15876,-1816,-797,-277,-37
2644,791,759,883,743,139,4764,-15776,-1768,-817,-305,-69
2647,790,757,886,747,137,4744,-15756,-1872,-835,-325,-62
2650,791,758,881,747,133,4664,-15884,-1728,-877,-343,-74
2653,787,757,883,749,132,4724,-15816,-1660,-858,-328,-45
2656,787,754,881,750,137,4744,-15788,-1752,-873,-395,-85
2659,784,754,880,755,138,4572,-15796,-1808,-851,-386,-77
2662,783,752,885,747,134,4712,-15856,-1804,-907,-383,-71
2665,791,752,885,752,134,4716,-15820,-1736,-834,-326,-85
2668,786,751,885,742,140,4696,-15920,-1680,-844,-369,-42
2671,793,743,881,752,135,4700,-15832,-1828,-897,-361,-81
2674,788,751,880,750,141,4700,-15772,-1636,-867,-405,-95
2677,787,752,880,748,138,4604,-15840,-1756,-907,-406,-67
2680,784,750,886,752,135,4680,-15836,-1628,-862,-373,-63
2683,787,747,887,751,137,4580,-15892,-1844,-883,-404,-65
2686,785,756,883,752,129,4592,-15824,-1716,-886,-415,-53
2689,790,752,883,750,137,4724,-15852,-1612,-898,-372,-57
2692,791,754,880,748,136,4712,-15724,-1712,-883,-374,-33
2695,784,752,883,747,141,4808,-15808,-1672,-861,-464,-18
2698,787,750,883,747,135,4568,-15812,-1540,-857,-338,4
2701,789,749,887,748,137,4716,-15720,-1632,-863,-366,-3
2704,794,752,888,742,139,4788,-15720,-1656,-853,-360,6
2707,796,754,882,741,139,4760,-15812,-1900,-864,-375,11
2710,790,752,884,742,140,4760,-15688,-1604,-874,-331,-10
2713,794,754,885,745,133,4656,-15788,-1804,-878,-339,3
2716,796,755,891,743,134,4740,-15728,-1820,-888,-314,-4
2719,798,761,891,741,140,4696,-15744,-1764,-898,-297,17
2722,798,757,885,742,139,4588,-15728,-1732,-886,-283,-4
2725,789,759,891,740,138,4676,-15688,-1612,-905,-290,-1
2728,795,757,890,739,138,4612,-15772,-1712,-892,-284,-15
2731,796,759,885,739,136,4568,-15808,-1720,-901,-304,-21
2734,803,759,897,739,138,4792,-15760,-1812,-908,-297,-20
2737,796,759,882,737,138,4560,-15836,-1624,-929,-308,-55
2740,794,764,890,736,138,4660,-15804,-1728,-887,-299,-48
2743,791,749,890,736,138,4660,-15880,-1724,-926,-323,-59
2746,793,766,891,737,135,4592,-15864,-1764,-912,-301,-54
2749,796,763,889,738,140,4576,-15868,-1676,-898,-278,-56
2752,795,752,891,737,135,4540,-15872,-1712,-914,-334,-57
2755,794,758,890,739,142,4536,-15924,-1772,-895,-288,-50
2758,794,761,889,740,138,4532,-15936,-1652,-885,-295,-73
2761,790,755,891,741,140,4600,-15820,-1660,-875,-213,-58
2764,791,758,883,742,138,4516,-15904,-1656,-850,-248,-46
2767,783,745,885,740,130,4572,-15960,-1624,-855,-280,-23
2770,793,762,887,743,136,4688,-15792,-1664,-831,-217,-38
2773,791,755,886,739,133,4532,-15824,-1744,-840,-241,-33
2776,791,755,891,741,139,4544,-15872,-1820,-829,-248,-34
2779,796,761,882,745,138,4696,-15868,-1612,-830,-208,-48
2782,797,759,890,738,138,4776,-15904,-1560,-812,-190,-17
2785,790,758,882,752,133,4736,-15888,-1688,-814,-197,-36
2788,797,757,891,746,133,4708,-15980,-1688,-829,-178,-18
2791,789,755,889,743,137,4784,-15912,-1548,-835,-185,-29
2794,796,752,889,745,141,4828,-15848,-1624,-844,-142,-15
2797,793,757,881,745,140,4864,-15928,-1584,-873,-131,-51
2800,790,755,891,746,134,4916,-15868,-1648,-969,-157,-97
2803,791,757,887,752,138,4768,-16020,-1620,-934,183,-130
2806,796,752,889,743,133,5032,-15776,-1632,-891,132,-139
2809,793,758,887,747,138,4720,-15924,-1400,-924,168,-138
2812,789,759,882,747,131,4860,-15932,-1552,-874,59,-104
2815,789,752,886,747,135,4756,-15832,-1588,-869,15,-95
2818,786,756,886,747,140,4820,-15912,-1528,-832,182,-131
2821,791,755,881,752,138,4892,-15820,-1624,-846,51,-79
2824,791,754,881,750,136,4752,-16024,-1460,-797,160,-144
2827,788,773,885,745,135,4848,-15940,-1792,-794,84,-121
2830,787,759,891,748,131,4792,-15928,-1464,-813,-33,-114
2833,795,757,883,746,135,4720,-15920,-1660,-754,-141,-76
2836,791,769,887,742,135,4812,-15888,-1472,-766,-152,-53
2839,787,755,891,743,138,4768,-15840,-1676,-786,-206,-78
2842,787,759,886,734,135,4812,-15912,-1644,-771,-119,-92
2845,790,755,886,739,135,4756,-15832,-1588,-804,-110,-99
2848,796,759,891,743,135,4780,-15784,-1584,-802,-100,-84
2851,794,761,883,739,133,4784,-15948,-1572,-799,-110,-63
2854,786,759,886,743,134,4616,-15884,-1428,-827,-59,-103
2857,794,762,887,745,141,4828,-15952,-1668,-824,4,-93
2860,791,762,889,739,137,4780,-15844,-1672,-795,69,-100
2863,788,758,889,743,134,4672,-15888,-1656,-789,60,-84
2866,790,763,883,739,132,4764,-15876,-1696,-792,33,-84
2869,790,762,886,739,133,4804,-15820,-1508,-760,32,-67
2872,793,766,886,745,133,4732,-15800,-1632,-767,70,-96
2875,793,762,887,742,142,4604,-15868,-1672,-772,6,-61
2878,793,761,890,741,139,4656,-15816,-1644,-774,-23,-64
2881,789,761,885,740,138,4816,-15808,-1608,-799,-85,-57
2884,787,759,888,742,135,4688,-15856,-1736,-820,-38,-54
2887,793,763,889,741,130,4752,-15856,-1684,-833,-48,-68
2890,788,755,885,747,135,4740,-15684,-1544,-839,-36,-60
2893,789,754,880,742,141,4788,-15872,-1564,-822,-26,-70
2896,788,759,886,743,135,4760,-15844,-1720,-868,-4,-76
2899,790,759,886,743,136,4768,-15796,-1560,-847,8,-72
2902,790,757,885,743,142,4724,-15812,-1520,-829,15,-80
2905,790,759,887,742,135,4736,-15732,-1644,-858,41,-70
2908,787,755,883,741,135,4720,-15808,-1696,-840,60,-66
2911,784,756,880,743,133,4736,-15912,-1600,-847,39,-95
2914,789,770,889,743,139,4612,-15744,-1692,-845,51,-99
2917,789,756,885,741,135,4720,-15872,-1724,-828,66,-82
2920,791,781,888,742,136,4668,-15780,-1608,-839,35,-90
2923,786,758,884,742,141,4696,-15804,-1628,-842,18,-89
2926,784,753,887,741,139,4716,-15832,-1604,-834,23,-110
2929,787,755,883,741,132,4752,-15792,-1656,-837,42,-111
2932,796,752,886,743,135,4720,-15748,-1584,-832,0,-106
2935,789,756,882,738,138,4640,-15816,-1628,-812,29,-119
2938,791,753,890,741,137,4576,-15708,-1632,-834,26,-118
2941,793,759,881,749,139,4596,-15772,-1644,-828,9,-105
2944,789,757,889,724,138,4644,-15816,-1860,-841,23,-118
2947,793,758,884,743,139,4692,-15748,-1684,-845,34,-120
2950,795,765,886,741,135,4684,-15852,-1656,-851,35,-107
2953,788,761,891,742,134,4704,-15892,-1704,-833,33,-122
2956,794,761,890,739,134,4696,-15820,-1768,-863,30,-107
2959,794,759,890,761,138,4576,-15864,-1652,-846,43,-102
2962,791,757,895,741,135,4624,-15816,-1760,-896,19,-83
2965,805,761,881,743,133,4712,-15824,-1696,-905,19,-69
2968,790,757,885,735,139,4664,-15784,-1728,-899,10,-49
2971,786,758,886,745,134,4620,-15828,-1748,-908,40,-56
2974,791,757,889,743,131,4604,-15964,-1660,-888,42,-35
2977,795,759,886,745,133,4680,-15828,-1724,-890,23,-33
2980,786,755,890,744,133,4692,-15792,-1880,-871,50,-29
2983,785,755,881,742,133,4716,-15832,-1612,-886,45,-21
2986,790,754,887,743,134,4724,-15876,-1628,-853,71,-49
2989,795,759,886,741,134,4724,-15792,-1596,-855,78,-28
2992,807,754,886,738,130,4760,-15856,-1480,-850,103,-28
2995,789,755,889,737,130,4708,-15800,-1628,-854,91,-24
2998,799,754,893,737,134,4760,-15776,-1740,-831,97,-12
3001,791,757,885,742,136,4756,-15720,-1624,-808,105,-30
3004,790,757,893,736,137,4876,-15740,-1848,-843,105,-28
3007,798,759,881,736,134,4744,-15832,-1628,-816,109,-44
3010,791,763,887,739,131,4860,-15812,-1480,-833,84,-46
3013,794,757,891,742,131,4808,-15808,-1788,-835,94,-36
3016,791,758,889,737,134,4836,-15848,-1720,-811,102,-40
3019,793,761,886,742,137,4872,-15868,-1712,-802,82,-22
3022,786,757,892,745,132,4780,-15780,-1580,-799,84,-32
3025,788,757,880,741,131,4860,-15764,-1628,-806,73,-39
3028,790,755,886,739,134,4744,-15848,-1576,-792,94,-15
3031,789,763,887,743,135,4676,-15804,-1556,-785,80,-17
3034,794,756,887,742,135,4784,-15772,-1808,-788,103,-22
3037,785,754,885,743,137,4812,-15824,-1700,-786,63,-4
3040,787,754,886,747,131,4708,-15896,-1716,-780,77,-19
3043,790,757,891,745,130,4712,-15896,-1480,-769,80,-18
3046,786,759,885,747,131,4776,-15832,-1640,-768,85,-38
3049,785,753,884,746,131,4924,-15860,-1676,-758,73,-31
3052,786,754,890,743,131,4756,-15780,-1520,-769,54,-36
3055,793,754,882,742,133,4828,-15916,-1676,-777,64,-44
3058,787,758,886,741,135,4820,-15880,-1604,-768,63,-22
3061,789,757,892,746,134,4804,-15900,-1688,-754,60,-47
3064,789,753,883,752,131,4768,-15804,-1668,-754,54,-79
3067,794,764,887,742,130,4816,-15872,-1656,-777,43,-61
3070,801,777,881,742,131,4784,-15940,-1632,-747,37,-86
3073,791,752,891,743,137,4732,-15840,-1524,-761,29,-61
3076,784,755,883,746,132,4712,-15880,-1500,-764,42,-84
3079,784,753,892,745,134,4764,-15808,-1492,-778,41,-109
3082,788,754,886,727,137,4780,-15776,-1612,-808,22,-111
3085,794,758,883,746,131,4836,-15832,-1748,-824,27,-92
3088,791,758,885,743,134,4832,-15832,-1620,-851,9,-102
3091,794,761,889,747,139,4756,-15780,-1708,-857,47,-129
3094,790,763,887,734,134,4772,-15924,-1464,-909,10,-114
3097,793,759,887,745,134,4792,-15920,-1516,-922,16,-129
3100,794,762,883,746,134,4644,-15780,-1568,-978,51,-140
3103,791,762,891,749,137,4760,-15868,-1564,-989,50,-128
3106,787,764,886,743,136,4652,-15864,-1492,-1014,35,-170
3109,794,761,885,746,130,4688,-15844,-1496,-1037,53,-165
3112,790,757,886,743,133,4776,-15968,-1492,-1029,61,-156
3115,801,759,884,741,134,4728,-15932,-1596,-1064,56,-178
3118,794,755,887,746,139,4664,-15932,-1404,-1066,53,-169
3121,793,762,890,742,134,4644,-15864,-1656,-1056,20,-170
3124,796,757,887,747,129,4716,-15960,-1608,-1042,35,-171
3127,795,755,888,742,135,4620,-15920,-1692,-1037,30,-164
3130,794,762,887,750,134,4696,-15928,-1532,-1028,5,-169
3133,795,753,887,750,132,4660,-15812,-1600,-1037,74,-85
3136,791,754,889,727,137,4624,-15908,-1628,-985,70,-176
3139,795,756,885,750,135,4524,-15844,-1596,-969,35,-151
3142,786,755,893,750,133,4444,-15740,-1632,-921,8,-145
3145,790,754,885,746,135,4620,-15860,-1576,-938,27,-164
3148,784,752,885,745,135,4664,-15740,-1628,-916,59,-118
3151,790,755,894,751,133,4504,-15764,-1604,-888,58,-130
3154,787,752,887,748,133,4564,-15676,-1480,-867,70,-126
3157,786,754,882,748,135,4552,-15772,-1660,-889,82,-99
3160,785,747,882,752,135,4504,-15688,-1652,-860,91,-105
3163,802,752,896,747,134,4608,-15660,-1544,-855,95,-96
3166,783,752,881,747,132,4564,-15780,-1684,-863,87,-108
3169,790,752,891,741,132,4620,-15712,-1588,-862,93,-79
3172,784,753,887,745,130,4620,-15792,-1412,-868,88,-73
3175,786,753,885,742,134,4692,-15740,-1692,-883,87,-64
3178,788,754,890,742,135,4608,-15644,-1544,-895,88,-29
3181,790,759,887,739,139,4676,-15700,-1484,-913,69,-61
3184,790,755,887,745,132,4728,-15688,-1600,-940,61,-48
3187,790,763,884,737,133,4736,-15712,-1660,-973,84,-61
3190,795,752,883,739,128,4576,-15700,-1544,-964,143,-75
3193,791,762,896,738,134,4724,-15572,-1720,-974,104,-58
3196,796,759,901,740,135,4712,-15644,-1636,-1001,116,-59
3199,801,763,886,745,133,4672,-15632,-1648,-1022,96,-71
3202,796,759,896,734,134,4616,-15700,-1596,-1033,88,-74
3205,794,762,883,739,134,4680,-15720,-1600,-1063,32,-118
3208,796,767,886,738,129,4720,-15660,-1680,-1056,102,-116
3211,799,763,883,742,130,4676,-15636,-1608,-1069,52,-124
3214,794,764,888,741,128,4644,-15820,-1608,-1098,70,-118
3217,800,765,885,742,133,4752,-15844,-1696,-1076,71,-126
3220,793,766,883,745,135,4648,-15784,-1624,-1083,24,-134
3223,794,783,884,739,136,4700,-15868,-1792,-1099,35,-146
3226,797,766,885,743,134,4680,-15852,-1632,-1092,-7,-123
3229,794,762,881,743,129,4640,-15896,-1632,-1107,11,-134
3232,797,767,884,741,128,4660,-15864,-1632,-1115,-11,-143
3235,802,767,888,738,130,4560,-15920,-1752,-1118,6,-157
3238,799,768,881,743,135,4556,-15804,-1652,-1120,14,-140
3241,794,770,891,743,133,4592,-15792,-1696,-1130,-27,-137
3244,786,765,889,741,133,4576,-15800,-1676,-1122,-5,-112
3247,797,768,888,740,129,4532,-15820,-1648,-1120,-19,-114
3250,789,767,891,735,131,4536,-15816,-1612,-1103,-3,-104
3253,791,763,894,739,129,4564,-15828,-1672,-1114,11,-76
3256,793,763,883,740,133,4604,-15852,-1444,-1077,-4,-63
3259,797,766,888,738,135,4664,-15792,-1672,-1073,3,-53
3262,790,758,889,741,134,4592,-15920,-1636,-1060,-14,-14
3265,793,760,892,739,133,4648,-15864,-1652,-1046,31,-23
3268,790,759,890,739,129,4636,-15888,-1612,-1007,37,42
3271,790,764,887,744,129,4700,-15872,-1524,-986,14,42
3274,794,766,894,731,138,4816,-15848,-1660,-960,58,51
3277,786,762,885,743,130,4784,-15772,-1588,-939,74,44
3280,790,762,884,740,135,4808,-15844,-1724,-929,66,43
3283,788,760,891,743,133,4988,-15840,-1748,-907,113,55
3286,793,762,889,741,131,4880,-15856,-1756,-880,114,29
3289,788,766,890,730,138,4904,-15872,-1716,-888,122,42
3292,792,761,886,747,131,4928,-15824,-1696,-873,149,3
3295,792,767,885,746,133,4844,-15784,-1708,-865,157,26
3298,792,763,894,736,134,4892,-15808,-1692,-876,135,10
3301,790,762,885,740,129,4884,-15952,-1688,-872,126,-28
3304,791,763,883,741,135,4916,-15820,-1600,-874,129,-16
3307,787,759,890,742,137,4896,-15844,-1712,-868,132,-40
3310,789,761,882,746,132,4812,-15864,-1704,-889,105,-38
3313,788,759,883,742,135,4980,-15888,-1716,-878,110,-60
3316,790,761,886,739,130,4960,-15836,-1720,-877,85,-61
3319,785,768,882,745,133,4744,-15864,-1680,-882,62,-78
3322,787,766,886,741,136,4908,-15824,-1808,-887,73,-66
3325,787,759,880,744,135,4800,-15848,-1732,-886,17,-70
3328,790,761,887,738,129,4828,-15816,-1816,-879,33,-73
3331,786,762,884,738,131,4776,-15964,-1704,-864,41,-101
3334,785,759,887,743,128,4772,-15860,-1728,-860,22,-102
3337,793,767,887,739,135,4856,-15896,-1800,-836,32,-102
3340,790,765,881,743,133,4820,-15900,-1748,-848,18,-102
3343,792,767,885,737,133,4812,-15836,-1704,-804,5,-109
3346,793,767,883,739,136,4684,-15812,-1824,-792,10,-118
3349,790,769,883,736,129,4784,-15932,-1736,-768,24,-104
3352,787,769,886,741,131,4828,-15980,-1604,-735,35,-90
3355,796,772,886,737,134,4708,-15932,-1588,-708,12,-73
3358,795,774,901,741,141,4768,-15976,-1840,-729,9,-91
3361,795,771,893,736,139,4760,-15916,-1596,-743,-1,-72
3364,796,772,890,737,133,4624,-15928,-1592,-715,15,-53
3367,787,773,893,741,131,4652,-15884,-1524,-734,7,-66
3370,790,770,889,739,131,4656,-15916,-1548,-740,-12,-44
3373,784,770,890,746,130,4628,-15952,-1540,-756,-29,-10
3376,784,768,893,742,132,4756,-15872,-1580,-727,-49,-3
3379,780,763,887,741,131,4844,-15964,-1520,-757,-44,-6
3382,790,763,908,751,130,4820,-15980,-1376,-781,-31,10
3385,784,758,880,750,131,4820,-15888,-1376,-805,-59,37
3388,784,752,881,752,131,4844,-15872,-1612,-800,-77,26
3391,785,750,883,752,134,4852,-15884,-1344,-790,-82,43
3394,784,746,882,754,131,4924,-15924,-1496,-806,-95,17
3397,783,741,885,757,131,4988,-15844,-1336,-801,-103,5
3400,785,739,887,758,134,4912,-15976,-1544,-800,-133,-33
3403,790,745,896,762,135,4972,-15904,-1504,-797,-143,-50
3406,791,747,883,761,135,4984,-15772,-1436,-795,-131,-99
3409,794,741,889,753,131,5064,-15916,-1528,-795,-152,-165
3412,795,741,880,765,128,4888,-15820,-1604,-804,-129,-202
3415,800,752,885,756,139,4960,-15864,-1584,-800,-115,-229
3418,799,749,885,758,135,4912,-15864,-1548,-804,-118,-315
3421,798,750,885,756,139,4872,-15828,-1688,-789,-108,-365
3424,802,752,880,759,130,4904,-15836,-1576,-826,-137,-389
3427,799,754,883,759,131,4748,-15772,-1676,-808,-143,-428
3430,802,751,885,758,132,4676,-15804,-1528,-849,-177,-483
3433,796,752,884,752,130,4628,-15924,-1648,-838,-154,-461
3436,787,752,880,752,135,4620,-15908,-1944,-851,-29,-517
3439,791,752,880,753,136,4568,-15820,-1788,-925,-36,-545
3442,798,752,884,752,134,4376,-15864,-1912,-860,-162,-464
3445,796,757,886,750,134,4264,-15860,-1916,-908,-306,-392
3448,795,757,880,746,130,4360,-15896,-1712,-904,-60,-407
3451,785,755,883,749,131,4372,-15824,-1896,-947,57,-399
3454,785,756,886,749,131,4368,-15888,-1832,-947,133,-337
3457,785,757,880,745,131,4292,-15872,-1740,-996,-70,-329
3460,786,756,880,750,135,4016,-15868,-1868,-1154,-266,-327
3463,784,758,882,746,139,4144,-15940,-1748,-1114,-165,-249
3466,787,761,882,743,132,4264,-15732,-1736,-1132,-184,-221
3469,784,761,882,748,133,4388,-15692,-1716,-1167,-154,-167
3472,779,763,886,721,133,4372,-15656,-1708,-1163,-152,-143
3475,784,759,880,745,130,4436,-15652,-1800,-1194,-172,-129
3478,782,759,881,741,131,4392,-15612,-1600,-1162,-128,-115
3481,784,757,887,746,134,4460,-15616,-1716,-1161,-65,-96
3484,785,759,886,743,134,4580,-15580,-1688,-1130,3,-89
3487,786,765,885,742,134,4660,-15500,-1588,-1101,60,-79
3490,784,763,881,746,131,4664,-15572,-1560,-1079,85,-47
3493,789,765,887,741,133,4664,-15472,-1440,-1037,76,-65
3496,788,762,884,742,138,4724,-15600,-1492,-1023,54,-66
3499,788,766,884,751,134,4712,-15520,-1504,-994,52,-59
3502,788,759,883,745,134,4772,-15628,-1460,-962,44,-46
3505,793,763,891,739,135,4708,-15624,-1504,-934,61,-23
3508,792,758,884,746,133,4680,-15656,-1596,-899,37,-29
3511,798,758,893,752,134,4816,-15700,-1592,-877,33,-44
3514,784,759,887,741,144,4796,-15728,-1456,-858,32,-22
3517,797,759,887,742,138,4772,-15712,-1588,-815,32,-17
3520,799,765,885,731,133,4764,-15776,-1808,-814,24,-20
3523,796,779,887,742,138,4788,-15720,-1672,-809,4,-21
3526,791,758,887,737,134,4788,-15700,-1724,-820,19,-22
3529,797,765,887,741,133,4796,-15696,-1684,-816,16,-42
3532,794,764,893,703,135,4664,-15796,-1816,-803,45,-3
3535,794,765,889,738,134,4772,-15844,-1808,-812,39,-22
3538,801,767,883,741,139,4736,-15876,-1844,-810,55,-27
3541,799,768,909,734,134,4820,-15812,-1852,-840,-24,-33
3544,798,767,893,733,136,4732,-15780,-1852,-843,-14,-8
3547,798,774,889,737,136,4692,-15864,-1996,-852,-59,-4
3550,799,775,892,733,138,4760,-15744,-1900,-834,-59,9
3553,804,778,896,734,142,4804,-15740,-1884,-843,-54,37
3556,804,774,896,735,131,4888,-15880,-1924,-847,-40,32
3559,800,777,894,735,135,4876,-15784,-1688,-848,-23,47
3562,800,782,891,731,139,4864,-15704,-1808,-857,-58,106
3565,801,781,883,737,137,4836,-15736,-1788,-861,-68,100
3568,799,777,886,735,132,4996,-15832,-1812,-872,-76,115
3571,793,780,896,735,138,4992,-15876,-1652,-901,-58,146
3574,795,776,895,737,137,5124,-15848,-1544,-864,-70,126
3577,787,777,887,737,140,5084,-15980,-1780,-885,-61,196
3580,791,775,896,750,138,5136,-15868,-1576,-849,-63,174
3583,790,775,891,741,138,5168,-15872,-1572,-876,10,213
3586,793,767,893,746,133,5128,-15828,-1620,-857,-9,182
3589,791,767,887,747,131,5232,-15952,-1472,-826,31,197
3592,795,770,890,740,133,5232,-15896,-1480,-839,54,176
3595,791,767,891,746,135,5284,-15860,-1600,-793,69,171
3598,794,763,887,741,137,5260,-15936,-1512,-778,47,153
3601,791,756,899,750,135,5164,-15952,-1368,-750,71,150
3604,810,757,893,748,132,5184,-15852,-1480,-724,55,115
3607,794,755,889,752,134,5212,-15940,-1536,-728,33,77
3610,792,755,881,747,137,5192,-15940,-1392,-683,28,47
3613,794,751,894,750,135,5072,-16004,-1468,-663,31,43
3616,794,752,883,750,137,5124,-15920,-1480,-641,34,32
3619,792,763,885,747,134,5168,-15908,-1456,-634,39,12
3622,790,752,895,750,139,5072,-15968,-1424,-624,13,-16
3625,786,753,890,743,139,4968,-15916,-1664,-588,37,-1
3628,786,752,883,742,139,4980,-15940,-1484,-573,44,0
3631,789,752,884,747,134,4980,-15944,-1432,-601,54,-9
3634,788,757,885,747,134,4980,-15972,-1588,-582,35,2
3637,785,755,888,749,134,4864,-16020,-1616,-593,47,2
3640,784,753,889,746,139,4924,-15980,-1504,-586,43,20
3643,784,753,887,743,139,4852,-15884,-1512,-596,36,37
3646,778,752,882,748,139,4920,-15996,-1576,-612,31,48
3649,784,752,886,739,134,4848,-15916,-1440,-612,41,81
3652,783,755,886,739,135,4808,-15868,-1612,-625,29,82
3655,780,752,883,743,138,4808,-15976,-1600,-654,52,89
3658,784,755,881,742,139,4824,-15908,-1692,-694,14,93
3661,780,751,889,743,141,4764,-15828,-1512,-677,20,92
3664,780,753,882,746,140,4816,-15840,-1500,-689,-5,95
3667,781,753,882,745,135,4712,-15864,-1520,-733,-20,96
3670,784,753,887,746,132,4900,-15812,-1300,-734,4,79
3673,784,752,887,752,135,4844,-15800,-1584,-749,-19,112
3676,784,755,885,745,139,4900,-15832,-1536,-765,1,105
3679,781,751,878,749,142,4736,-15732,-1488,-787,82,86
3682,788,751,886,749,139,4812,-15772,-1432,-791,13,103
3685,786,749,888,748,138,4848,-15792,-1472,-830,-38,93
3688,789,749,885,752,137,4828,-15756,-1504,-863,12,60
3691,781,752,889,765,142,4764,-15784,-1484,-889,36,39
3694,791,752,892,752,138,4780,-15732,-1348,-914,35,26
3697,797,754,887,746,135,4784,-15748,-1660,-911,39,-7
3700,795,754,887,742,137,4796,-15832,-1452,-928,-3,-12
3703,793,758,890,743,140,4900,-15788,-1464,-972,120,104
3706,796,757,891,739,134,4596,-15820,-1324,-925,224,-48
3709,793,752,883,741,134,4488,-15868,-1496,-912,67,-67
3712,799,759,885,743,135,4584,-15988,-1632,-926,-14,-95
3715,791,762,886,746,133,4492,-15840,-1476,-974,-5,-122
3718,795,762,888,746,140,4612,-15936,-1552,-935,15,-110
3721,795,766,885,751,137,4520,-15916,-1528,-940,30,-109
3724,790,763,881,750,139,4560,-15996,-1520,-937,29,-78
3727,789,762,884,747,142,4372,-15908,-1560,-886,51,-74
3730,788,759,885,746,133,4412,-15936,-1556,-886,26,-68
3733,786,753,880,743,131,4492,-15908,-1524,-854,0,-62
3736,785,757,880,742,135,4376,-15908,-1628,-820,2,-64
3739,784,752,886,747,137,4404,-15920,-1664,-789,5,-44
3742,784,752,880,745,142,4308,-15928,-1584,-744,65,-49
3745,786,752,887,745,138,4492,-15844,-1664,-710,86,5
3748,786,752,891,749,133,4348,-15904,-1628,-680,76,15
3751,785,755,887,746,135,4452,-15872,-1636,-669,70,29
3754,791,757,891,743,140,4464,-15792,-1620,-664,77,43
3757,793,759,883,740,141,4356,-15804,-1612,-631,81,59
3760,790,758,887,745,139,4392,-15788,-1512,-640,118,71
3763,787,761,885,745,138,4436,-15764,-1668,-608,139,73
3766,794,758,891,736,137,4468,-15780,-1524,-608,124,75
3769,787,765,885,750,134,4452,-15772,-1712,-591,150,90
3772,784,757,885,741,134,4504,-15744,-1508,-591,109,73
3775,786,758,884,739,137,4484,-15712,-1552,-591,161,93
3778,788,757,886,733,137,4580,-15716,-1588,-601,124,108
3781,784,758,890,741,135,4584,-15756,-1544,-592,128,99
3784,787,757,892,752,138,4544,-15736,-1612,-586,153,143
3787,785,758,892,741,132,4592,-15728,-1656,-601,125,126
3790,788,762,885,739,139,4484,-15728,-1728,-611,144,138
3793,794,762,893,742,139,4568,-15720,-1544,-627,106,142
3796,785,762,883,741,138,4620,-15808,-1500,-667,76,149
3799,784,755,891,741,140,4556,-15676,-1536,-677,75,150
3802,793,759,893,742,138,4624,-15664,-1592,-699,73,145
3805,787,757,884,741,138,4648,-15700,-1584,-709,89,145
3808,791,761,887,745,138,4756,-15664,-1464,-756,50,163
3811,791,758,886,741,139,4712,-15752,-1712,-797,36,107
3814,795,758,890,745,137,4716,-15700,-1628,-824,43,112
3817,795,759,887,743,138,4704,-15640,-1532,-840,53,94
3820,798,757,891,745,139,4680,-15764,-1452,-891,33,106
3823,789,757,893,745,141,4844,-15716,-1560,-896,33,91
3826,803,763,893,745,142,4768,-15848,-1560,-948,-2,55
3829,800,761,891,743,141,4764,-15728,-1484,-971,8,55
3832,801,768,889,745,137,4664,-15724,-1332,-987,-25,55
3835,800,765,893,743,142,4700,-15632,-1520,-972,-48,50
3838,797,762,897,746,139,4708,-15860,-1604,-1028,-52,41
3841,800,769,891,746,142,4656,-15820,-1508,-1050,-72,20
3844,803,771,896,745,140,4796,-15812,-1512,-1033,-81,35
3847,795,767,901,741,135,4776,-15860,-1544,-1086,-100,24
3850,795,767,893,747,135,4816,-15984,-1624,-1076,-111,42
3853,800,767,893,741,134,4764,-16028,-1476,-1069,-97,40
3856,798,769,892,742,139,4848,-15940,-1548,-1084,-118,28
3859,797,765,892,741,144,4788,-15980,-1632,-1037,-99,26
3862,794,767,896,734,135,4904,-16072,-1684,-1045,-93,39
3865,791,767,893,740,142,4856,-16100,-1556,-988,-88,49
3868,795,766,891,738,134,4916,-15956,-1492,-979,-103,32
3871,790,763,889,741,141,4972,-16052,-1512,-957,-104,37
3874,790,763,891,746,138,4976,-16012,-1504,-923,-82,36
3877,789,765,894,741,140,4976,-16016,-1580,-894,-74,36
3880,790,763,891,743,140,4984,-16000,-1576,-869,-100,16
3883,789,771,883,751,134,4920,-16064,-1428,-852,-80,43
3886,784,749,887,742,137,4916,-15984,-1536,-822,-94,37
3889,785,764,887,747,138,4868,-16008,-1472,-775,-82,33
3892,783,755,895,751,140,4916,-15976,-1364,-754,-86,7
3895,784,753,880,743,134,4852,-15936,-1420,-718,-94,28
3898,784,754,883,738,138,4828,-16024,-1464,-692,-102,1
3901,801,751,884,747,135,4844,-16012,-1476,-648,-50,15
3904,784,754,885,742,142,4708,-15896,-1440,-615,-65,22
3907,786,750,885,744,139,4660,-16016,-1564,-590,-83,-17
3910,785,750,885,743,133,4784,-15936,-1608,-551,-28,-31
3913,786,755,889,749,141,4824,-15876,-1428,-546,-26,-57
3916,784,752,885,747,140,4764,-15828,-1520,-544,-13,-49
3919,787,753,884,749,138,4636,-15876,-1612,-507,-24,-68
3922,786,752,891,751,142,4652,-16024,-1508,-500,-31,-78
3925,789,753,882,743,135,4596,-15908,-1536,-485,-76,-105
3928,788,762,887,746,139,4604,-15840,-1572,-492,-72,-141
3931,790,752,884,749,134,4560,-16000,-1444,-473,-94,-165
3934,790,753,882,747,139,4532,-15876,-1632,-512,-83,-195
3937,794,754,884,743,143,4484,-15888,-1680,-497,-104,-209
3940,798,757,886,746,141,4528,-15844,-1572,-506,-120,-236
3943,793,752,882,755,139,4372,-15948,-1768,-518,-108,-247
3946,800,759,885,746,140,4432,-15828,-1828,-549,-104,-291
3949,796,755,880,751,134,4324,-15844,-1620,-566,-102,-293
3952,794,755,886,751,139,4404,-15912,-1672,-590,-64,-324
3955,797,759,882,749,135,4168,-15836,-1752,-639,-61,-300
3958,794,758,889,749,138,4360,-15868,-1752,-689,-80,-337
3961,785,757,888,747,142,4288,-15828,-1708,-748,-57,-302
3964,798,761,891,749,139,4328,-15816,-1852,-737,-11,-296
3967,792,758,885,746,132,4104,-15912,-1488,-808,-71,-322
3970,789,757,883,747,137,4040,-15864,-1680,-814,-111,-284
3973,787,755,887,749,137,4076,-15840,-1516,-871,-183,-254
3976,790,759,888,751,139,4172,-15836,-1560,-872,-79,-264
3979,794,757,883,752,140,4192,-15832,-1604,-883,-345,-180
3982,790,754,887,750,138,4448,-15688,-1484,-850,74,-190
3985,785,753,891,749,139,4240,-15680,-1620,-878,-196,-121
3988,786,757,895,750,135,4276,-15732,-1452,-895,-188,-114
3991,789,755,887,751,138,4408,-15764,-1440,-892,-350,-35
3994,790,759,893,745,134,4336,-15748,-1384,-861,-169,-55
3997,794,757,887,745,142,4500,-15680,-1544,-867,-180,-5
4000,795,762,891,741,139,4532,-15628,-1280,-814,24,-28
4003,812,759,891,742,143,4432,-15656,-1448,-836,-169,-35
4006,793,761,891,725,141,4552,-15580,-1440,-748,-40,19
4009,797,759,893,741,141,4596,-15660,-1264,-641,241,41
4012,797,764,896,745,140,4628,-15620,-1688,-819,-44,-1
4015,790,759,899,741,139,4684,-15520,-1376,-823,61,-85
4018,784,762,890,738,139,4740,-15692,-1476,-785,75,-23
4021,807,756,892,741,143,4704,-15664,-1604,-816,-12,-33
4024,794,766,890,739,141,4668,-15684,-1400,-804,4,-13
4027,795,749,893,739,138,4492,-15652,-1524,-1006,-561,-125
4030,794,762,887,737,137,4592,-15696,-1436,-930,-350,-118
4033,790,761,891,738,138,4748,-15856,-1416,-888,-138,-54
4036,787,763,885,741,141,4712,-15828,-1320,-881,-102,-88
4039,788,766,885,741,141,4736,-15796,-1384,-895,-21,-89
4042,789,761,887,747,141,4760,-15844,-1464,-915,6,-107
4045,797,759,893,742,138,4820,-15860,-1528,-916,68,-123
4048,786,763,890,741,142,4780,-15760,-1460,-935,24,-134
4051,789,757,885,742,139,4732,-15888,-1348,-949,-8,-132
4054,790,762,884,741,139,4656,-15804,-1564,-989,-47,-146
4057,789,761,894,745,137,4688,-15884,-1336,-1037,-82,-165
4060,795,765,892,741,144,4732,-15928,-1248,-1035,-144,-148
4063,791,758,889,749,142,4760,-15864,-1480,-1092,-195,-155
4066,795,768,887,740,143,4736,-15868,-1352,-1098,-231,-145
4069,800,766,891,743,144,4836,-15964,-1456,-1086,-201,-138
4072,797,765,893,747,135,4904,-15816,-1536,-1103,-223,-129
4075,791,762,887,746,139,4732,-15900,-1428,-1105,-241,-105
4078,806,761,886,742,140,4884,-15908,-1392,-1133,-238,-106
4081,792,765,891,751,139,4888,-15916,-1392,-1148,-204,-86
4084,798,766,886,745,139,5020,-15912,-1388,-1156,-198,-74
4087,796,766,890,742,139,5040,-15900,-1260,-1154,-169,-52
4090,789,762,894,743,138,4996,-15952,-1556,-1162,-123,-52
4093,795,762,889,746,143,5068,-15924,-1420,-1137,-88,-41
4096,792,764,886,745,143,4980,-15980,-1240,-1139,-105,-26
4099,791,766,894,745,144,5104,-16104,-1444,-1128,-63,3
4102,791,760,889,746,144,5064,-16052,-1376,-1092,-51,-27
4105,793,761,889,747,137,5144,-16024,-1400,-1082,-70,-8
4108,789,759,891,733,139,5036,-16004,-1452,-1073,-45,-1
4111,784,758,887,749,139,5144,-15984,-1340,-1054,-42,8
4114,791,759,895,746,141,5084,-15976,-1292,-1028,-67,-11
4117,791,757,891,745,143,5148,-16000,-1320,-1023,-22,9
4120,796,763,887,750,144,5120,-16004,-1360,-1004,-33,6
4123,791,758,886,749,142,5168,-16028,-1436,-973,-11,16
4126,791,759,890,746,144,5208,-15948,-1440,-953,26,7
4129,791,757,889,746,142,5124,-16012,-1404,-933,22,22
4132,793,758,891,740,142,5216,-15832,-1352,-895,41,30
4135,789,758,885,743,140,5056,-15840,-1376,-853,50,14
4138,785,755,890,744,142,5112,-15908,-1248,-855,51,30
4141,786,756,886,742,142,5068,-15940,-1340,-802,55,37
4144,787,759,893,743,138,5052,-15868,-1336,-822,-14,53
4147,787,758,893,745,140,5092,-15948,-1360,-777,6,76
4150,784,759,887,743,137,4968,-15888,-1356,-785,-40,91
4153,785,756,885,741,142,5004,-16020,-1296,-787,-48,94
4156,784,755,887,744,141,5108,-15928,-1344,-754,-46,136
4159,784,754,886,745,141,5040,-15912,-1336,-739,-82,131
4162,783,754,886,745,139,5040,-15824,-1524,-732,-71,143
4165,784,754,887,748,141,4996,-15904,-1252,-759,-70,159
4168,784,752,890,747,135,5132,-15924,-1240,-733,-55,173
4171,784,757,891,748,135,5108,-15944,-1352,-676,-64,182
4174,784,755,883,743,139,5152,-15956,-1120,-703,-72,177
4177,784,753,887,743,141,4964,-15860,-1384,-672,-100,198
4180,787,753,885,743,144,5056,-15828,-1168,-597,123,195
4183,785,753,895,742,142,4992,-15908,-1368,-634,-42,227
4186,795,752,894,745,144,5004,-15804,-1532,-670,-195,187
4189,786,753,886,750,138,5056,-15736,-1332,-630,-85,231
4192,787,751,890,749,142,4944,-15748,-1436,-623,-51,226
4195,790,756,889,753,140,5048,-15804,-1328,-637,-3,196
4198,794,754,886,747,142,5064,-15884,-1248,-626,-9,214
4201,791,754,889,745,137,4956,-15760,-1344,-626,84,197
4204,791,757,891,743,141,5000,-15720,-1380,-593,215,218
4207,796,757,886,745,139,4960,-15744,-1292,-650,86,252
4210,796,757,887,735,141,4920,-15912,-1324,-689,-30,246
4213,794,758,888,742,140,4764,-15828,-1420,-727,-90,259
4216,797,761,885,744,142,4768,-15804,-1308,-759,-3,289
4219,795,762,891,738,140,4916,-15792,-1404,-785,87,370
4222,792,762,891,739,142,4764,-15832,-1272,-795,113,338
4225,797,761,889,746,141,4676,-15796,-1276,-785,67,338
4228,789,765,887,740,143,4628,-15844,-1268,-793,101,359
4231,791,765,887,742,138,4712,-15772,-1252,-838,82,399
4234,787,766,889,742,138,4736,-15732,-1184,-860,37,427
4237,790,759,893,739,135,4704,-15796,-1316,-880,-8,425
4240,784,762,891,740,142,4716,-15768,-1352,-922,-33,453
4243,785,767,886,743,145,4656,-15748,-1380,-930,-37,429
4246,791,763,893,743,142,4776,-15704,-1268,-905,2,450
4249,784,759,891,737,139,4664,-15764,-1292,-955,-13,482
4252,793,763,889,743,138,4804,-15616,-1228,-943,14,507
4255,786,762,885,754,142,4736,-15784,-1164,-952,-15,473
4258,793,758,889,750,143,4764,-15720,-1284,-1013,-109,501
4261,789,757,887,746,144,4748,-15628,-1172,-1038,-47,451
4264,791,759,885,749,138,4800,-15712,-1256,-969,51,479
4267,784,754,890,749,137,4788,-15628,-1324,-953,140,477
4270,784,753,889,749,140,4812,-15664,-1264,-988,123,480
4273,791,753,890,746,137,4736,-15700,-1332,-1020,66,491
4276,792,755,884,750,142,4780,-15796,-1392,-1016,63,448
4279,790,753,883,746,144,4624,-15836,-1444,-1041,75,443
4282,790,752,884,746,138,4632,-15804,-1392,-1034,37,458
4285,793,752,883,745,138,4656,-15760,-1476,-1088,108,429
4288,799,755,892,743,138,4592,-15848,-1280,-1080,101,417
4291,801,754,892,747,136,4592,-15872,-1400,-1118,148,447
4294,795,753,886,743,139,4556,-15756,-1424,-1169,98,403
4297,795,761,890,744,135,4516,-15796,-1544,-1201,71,408
4300,791,757,887,746,141,4580,-15776,-1432,-1210,64,401
4303,791,757,883,739,138,4560,-15804,-1164,-1249,64,361
4306,790,757,885,745,142,4660,-15716,-1412,-1275,83,381
4309,788,758,887,740,143,4480,-15852,-1528,-1298,57,338
4312,782,758,887,743,138,4412,-15836,-1588,-1291,1,325
4315,786,753,886,743,137,4396,-15940,-1476,-1286,-4,307
4318,784,756,882,745,139,4320,-15912,-1580,-1285,71,311
4321,787,755,885,740,138,4400,-15996,-1556,-1307,97,288
4324,787,752,891,741,139,4364,-16004,-1468,-1313,107,288
4327,790,761,890,739,136,4224,-16032,-1644,-1319,101,266
4330,786,762,880,739,138,4088,-16080,-1504,-1311,19,274
4333,789,759,887,742,143,4128,-16028,-1532,-1294,-62,337
4336,782,765,883,746,139,4184,-16112,-1492,-1341,34,275
4339,787,760,888,743,142,4348,-16048,-1604,-1342,165,235
4342,787,761,883,741,144,4404,-15992,-1420,-1330,203,231
4345,785,767,885,747,135,4208,-16136,-1560,-1335,42,250
4348,786,759,885,745,129,4212,-16032,-1496,-1316,5,271
4351,787,759,889,745,142,4064,-15992,-1516,-1330,-40,278
4354,788,754,886,752,142,4164,-15976,-1408,-1358,102,203
4357,784,754,881,745,141,4228,-16052,-1500,-1365,93,221
4360,784,758,891,741,143,4120,-16108,-1568,-1359,191,193
4363,784,762,894,747,141,4236,-16052,-1356,-1341,153,212
4366,789,758,903,743,135,4196,-16104,-1580,-1306,145,184
4369,784,761,891,750,135,4284,-16096,-1544,-1298,156,174
4372,793,765,890,749,135,4236,-16108,-1524,-1233,240,134
4375,787,762,890,747,139,4360,-16140,-1608,-1210,216,126
4378,782,763,889,752,142,4216,-16040,-1572,-1187,162,114
4381,784,763,891,746,137,4208,-15992,-1636,-1157,177,75
4384,775,759,890,744,138,4260,-16048,-1656,-1157,190,104
4387,772,758,887,749,138,4160,-16048,-1720,-1147,154,47
4390,772,756,885,746,139,4212,-16076,-1688,-1131,207,21
4393,773,759,889,745,141,4228,-15952,-1560,-1098,264,-1
4396,770,761,886,745,139,4176,-16092,-1644,-1108,237,16
4399,769,757,886,748,144,4160,-15992,-1652,-1090,244,-20
4402,777,763,895,741,140,4180,-16016,-1744,-1095,261,-17
4405,768,758,887,743,144,4204,-15996,-1860,-1083,289,-34
4408,768,755,886,741,144,4196,-15960,-1708,-1103,278,-50
4411,768,763,887,743,135,4144,-16052,-1660,-1102,255,-43
4414,771,762,885,743,138,4148,-15940,-1692,-1104,209,-26
4417,771,753,886,742,141,4184,-16072,-1712,-1112,213,-31
4420,786,752,885,747,137,4128,-16004,-1660,-1131,203,-32
4423,766,759,885,742,134,4184,-15968,-1636,-1129,181,-15
4426,762,752,886,743,142,4248,-16076,-1688,-1123,187,-28
4429,759,759,887,739,144,4220,-15972,-1624,-1113,213,7
4432,751,762,882,747,142,4216,-15948,-1684,-1100,204,14
4435,752,775,887,743,144,4208,-15996,-1584,-1082,246,30
4438,755,789,887,746,147,4216,-15984,-1636,-1069,254,-11
4441,762,801,885,746,147,4324,-15984,-1596,-1015,288,8
4444,771,821,895,750,153,4272,-15992,-1604,-1036,289,-2
4447,778,832,891,750,148,4288,-15940,-1568,-1001,302,-4
4450,788,842,895,749,148,4244,-16048,-1648,-983,331,-42
4453,790,842,895,749,149,4364,-15992,-1624,-975,362,-22
4456,796,847,895,753,152,4472,-15976,-1608,-905,418,-16
4459,809,848,897,752,147,4440,-15964,-1608,-892,484,-33
4462,803,841,894,755,147,4516,-16100,-1896,-856,504,-8
4465,806,837,898,755,155,4424,-16076,-1728,-794,550,-14
4468,808,847,900,761,156,4508,-16056,-1844,-735,588,-25
4471,798,858,902,764,154,4556,-16088,-2336,-606,745,-27
4474,812,880,904,761,167,4552,-16156,-2560,-378,927,-19
4477,831,899,903,769,190,4532,-16120,-3212,-125,1051,-8
4480,842,885,899,768,196,4476,-16292,-3564,157,1145,4
4483,847,854,903,765,195,4536,-16276,-3940,280,1220,-8
4486,841,811,901,771,205,4580,-16256,-3924,622,1199,-34
4489,819,767,889,773,203,4396,-16200,-3820,783,1271,-52
4492,810,720,895,779,198,4604,-16084,-3552,992,1304,-76
4495,789,697,895,783,199,4232,-15940,-3008,1085,1085,-191
4498,785,693,887,780,195,4124,-15880,-2632,1175,909,-189
4501,777,701,891,775,198,4212,-15916,-1952,1179,790,-265
4504,769,703,887,779,193,4220,-15872,-1612,850,826,-355
4507,765,719,890,783,191,4612,-15860,-1000,680,1001,-394
4510,768,727,886,775,192,4336,-15852,-704,289,839,-397
4513,775,743,881,773,206,4532,-15960,-292,-62,622,-355
4516,784,740,882,767,238,4544,-15924,-200,-481,600,-320
4519,784,727,882,759,234,4796,-15856,-100,-776,524,-234
4522,784,714,883,761,238,4884,-15792,-168,-983,517,-87
4525,785,703,879,754,243,5028,-15704,-500,-1122,623,26
4528,784,682,879,753,250,5180,-15480,-624,-1325,908,52
4531,784,662,871,753,239,5124,-15720,-752,-1259,924,206
4534,778,647,876,753,239,5408,-15556,-780,-1270,1026,257
4537,772,640,879,754,240,5188,-15424,-804,-1490,593,207
4540,779,645,882,759,240,4980,-15628,-1164,-1567,531,155
4543,787,640,881,756,231,5376,-15548,-1292,-1420,609,119
4546,793,640,891,767,233,5376,-15560,-868,-1270,857,32
4549,798,651,896,773,234,5232,-15600,-1528,-1157,790,-47
4552,806,656,896,779,228,5176,-15740,-1308,-940,662,-36
4555,804,670,909,782,226,5096,-15560,-1468,-819,415,-46
4558,800,681,902,784,227,5232,-15648,-1284,-629,736,-118
4561,793,697,899,786,219,5092,-15692,-1280,-705,426,-125
4564,787,703,899,784,218,4868,-15808,-1524,-812,358,-149
4567,789,709,907,783,210,4892,-15888,-1256,-894,150,-145
4570,794,714,906,784,240,5072,-15776,-1740,-1092,226,-164
4573,794,718,912,782,253,5212,-15824,-1272,-1247,309,-159
4576,791,718,910,784,255,5120,-15708,-1076,-1360,359,-127
4579,783,715,907,784,259,4916,-15688,-1176,-1601,354,-110
4582,775,714,903,787,261,5152,-15676,-1240,-1845,390,-78
4585,763,720,911,788,258,5152,-15868,-1288,-1996,531,-50
4588,758,721,912,794,250,5220,-15944,-928,-2127,401,-12
4591,754,720,905,794,242,5020,-16060,-1316,-2232,484,22
4594,755,721,909,795,240,5140,-15924,-1080,-2289,328,89
4597,755,730,901,791,238,5092,-15916,-1036,-2376,269,142
4600,759,726,902,791,229,5164,-16004,-1008,-2363,593,168
4603,763,726,897,787,230,5352,-15940,-1260,-2496,781,144
4606,767,726,906,785,221,5288,-16024,-1256,-2457,937,179
4609,769,723,895,787,217,5084,-16080,-1408,-2517,950,165
4612,783,735,891,784,217,5128,-15904,-1060,-2716,1112,134
4615,775,735,885,783,218,4856,-16032,-1292,-2507,633,188
4618,768,741,885,783,209,4788,-15956,-1364,-2531,316,173
4621,770,746,887,782,209,4900,-15976,-1080,-2434,139,175
4624,768,752,885,777,211,5024,-15828,-1152,-2367,162,156
4627,768,752,880,771,208,4840,-15812,-1352,-2300,-221,186
4630,775,752,885,771,205,4968,-15804,-984,-2216,-198,175
4633,771,755,884,765,225,4904,-15764,-880,-1983,-304,221
4636,771,755,879,763,227,5012,-15712,-1104,-1855,-244,170
4639,775,752,880,763,226,4800,-15860,-1308,-1637,-336,163
4642,777,754,883,758,231,5020,-15872,-980,-1410,107,141
4645,781,746,887,752,226,4920,-15908,-1024,-1172,64,146
4648,784,755,886,753,222,4872,-15924,-1308,-1116,-322,119
4651,784,754,883,751,213,4888,-15936,-1116,-995,-339,97
4654,790,752,881,746,209,4792,-15928,-1144,-857,-169,46
4657,797,743,889,743,206,4912,-16096,-1116,-677,-95,55
4660,790,753,882,737,204,4804,-16060,-1112,-615,17,8
4663,794,756,886,740,206,4668,-16136,-1240,-512,141,4
4666,799,754,885,743,201,4744,-16264,-976,-377,262,30
4669,795,758,892,739,196,4520,-16320,-1108,-298,206,50
4672,794,756,885,735,192,4520,-16172,-1120,-220,259,109
4675,790,757,883,737,196,4276,-16156,-1204,-218,-121,97
4678,793,770,887,737,193,4384,-16292,-1200,-145,24,136
4681,802,767,888,735,197,4372,-16192,-1000,-44,147,182
4684,808,765,889,736,201,4348,-16192,-1312,48,203,211
4687,812,761,886,734,209,4316,-16136,-1352,163,257,267
4690,815,757,886,737,229,4172,-16136,-1452,310,311,295
4693,816,754,885,738,233,4092,-15908,-1560,398,279,353
4696,816,752,891,738,258,4152,-15892,-1716,443,267,356
4699,818,752,886,743,263,4276,-15836,-1752,410,291,349
4702,817,763,891,747,255,4212,-15936,-1648,376,492,341
4705,816,767,886,739,245,4396,-15768,-1492,369,458,359
4708,816,770,891,737,243,4156,-15804,-1372,393,378,354
4711,817,779,896,733,238,4216,-15820,-1608,340,270,351
4714,824,789,894,736,238,4220,-15872,-1664,275,249,365
4717,816,791,890,734,235,4320,-15964,-1620,198,216,375
4720,833,801,900,729,240,4128,-15988,-1620,90,173,392
4723,841,804,896,730,233,4064,-15856,-1820,-49,151,388
4726,848,815,896,727,229,4140,-15920,-1700,-163,119,414
4729,839,814,902,732,227,4052,-15944,-1720,-289,114,401
4732,841,809,905,727,225,4056,-15944,-1532,-381,92,394
4735,832,798,905,724,222,4080,-15800,-1604,-469,16,379
4738,833,797,905,731,210,4044,-15744,-1528,-520,-55,348
4741,828,789,901,726,211,4068,-15620,-1660,-575,-58,348
4744,823,789,900,728,208,4052,-15752,-1472,-607,-90,314
4747,816,789,897,733,208,4104,-15728,-1392,-675,-158,300
4750,814,792,901,730,204,4168,-15708,-1448,-728,-221,244
4753,814,793,895,729,199,4216,-15716,-1372,-789,-264,240
4756,815,794,898,735,208,4188,-15764,-1416,-843,-285,207
4759,812,791,899,735,207,4240,-15664,-1328,-870,-282,206
4762,809,787,895,737,202,4176,-15736,-1512,-924,-276,177
4765,803,785,894,741,198,4212,-15764,-1272,-933,-308,141
4768,801,769,896,737,195,4248,-15712,-1348,-979,-286,135
4771,802,754,894,746,197,4208,-15844,-1376,-989,-294,114
4774,800,745,893,752,192,4332,-15916,-1304,-982,-272,115
4777,798,734,896,752,186,4304,-15784,-1300,-1007,-290,47
4780,789,721,890,751,196,4224,-15820,-1240,-997,-248,56
4783,787,716,895,748,191,4220,-15960,-1112,-988,-186,58
4786,786,715,886,743,183,4460,-15816,-1372,-991,-174,40
4789,786,717,894,748,193,4324,-15780,-1200,-979,-95,40
4792,786,720,889,748,193,4364,-15828,-1488,-980,262,21
4795,786,721,894,743,197,3832,-15816,-2056,-1245,-633,-18
4798,777,720,891,750,192,4620,-15884,-1372,-1012,-20,-14
4801,778,709,889,752,193,4504,-15932,-1528,-961,437,-2
4804,769,704,894,754,197,4640,-15768,-1944,-995,547,11
4807,768,701,891,757,194,4300,-16032,-1908,-1030,420,-2
4810,764,702,887,758,197,4312,-16000,-1940,-1102,48,83
4813,764,705,894,761,195,4212,-15924,-1820,-1249,-10,77
4816,753,717,882,752,197,4252,-16100,-1836,-1319,-136,73
4819,759,720,890,751,189,4260,-15980,-1816,-1433,-244,32
4822,761,735,889,752,191,4132,-15960,-1592,-1542,-380,43
4825,757,747,887,752,188,4296,-16008,-1472,-1556,-415,95
4828,764,752,887,753,188,4420,-15804,-1400,-1593,-308,96
4831,766,755,881,751,182,4360,-15860,-1388,-1659,-310,104
4834,769,767,886,745,177,4408,-15800,-1240,-1657,-54,85
4837,769,784,891,734,177,4372,-15788,-1444,-1642,-63,109
4840,769,771,891,739,175,4428,-15784,-1452,-1655,139,98
4843,767,770,883,743,176,4376,-15716,-1420,-1640,-82,103
4846,774,773,889,740,176,4264,-15788,-1592,-1646,-94,97
4849,779,768,890,749,195,4380,-15732,-1456,-1629,-283,148
4852,782,765,900,746,207,4452,-15552,-1116,-1617,-18,79
4855,783,752,902,737,195,4348,-15560,-1472,-1560,-124,111
4858,784,749,898,741,200,4464,-15668,-1408,-1545,-19,61
4861,784,731,904,738,201,4408,-15564,-1536,-1543,-74,79
4864,778,719,899,739,194,4536,-15728,-1452,-1539,49,23
4867,773,704,900,735,201,4596,-15740,-1452,-1513,58,7
4870,766,690,905,734,195,4344,-15876,-1556,-1472,124,-19
4873,767,688,897,731,201,4480,-15920,-1440,-1430,223,-75
4876,766,694,897,731,198,4428,-16072,-1520,-1389,165,-43
4879,762,689,895,735,202,4372,-16228,-1432,-1310,136,-65
4882,763,695,896,734,196,4360,-16232,-1324,-1287,60,-75
4885,771,697,891,737,199,4264,-16280,-1468,-1221,64,-78
4888,775,697,893,737,192,4324,-16332,-1136,-1214,44,-66
4891,779,695,899,735,190,4272,-16520,-1176,-1196,9,-65
4894,785,697,897,731,192,4220,-16500,-1184,-1146,-2,-55
4897,787,709,893,724,191,4164,-16432,-1164,-1119,-14,-41
4900,786,690,894,725,186,4312,-16268,-1132,-1041,13,-26
4903,795,695,899,729,182,4284,-16260,-1208,-987,25,-6
4906,800,699,902,724,176,4300,-16204,-1088,-920,53,20
4909,798,701,897,727,176,4240,-16116,-1004,-850,80,26
4912,800,710,897,731,176,4296,-15972,-1072,-801,84,55
4915,789,711,896,727,181,4268,-15948,-1176,-763,123,35
4918,789,720,895,730,176,4384,-15896,-1324,-696,133,81
4921,787,719,898,731,174,4428,-15936,-1364,-686,115,87
4924,779,721,896,732,171,4320,-15780,-1292,-682,97,104
4927,783,726,903,733,176,4420,-15872,-1336,-707,84,100
4930,785,730,902,728,178,4416,-15844,-1436,-712,39,108
4933,784,733,896,732,177,4496,-15676,-1540,-742,6,113
4936,784,727,896,733,181,4456,-15816,-1376,-783,-61,123
4939,782,722,897,736,184,4516,-15764,-1332,-788,-89,121
4942,787,725,896,736,179,4576,-15780,-1476,-767,-76,118
4945,786,730,894,741,178,4608,-15820,-1460,-787,-74,84
4948,803,727,894,731,179,4568,-15648,-1624,-774,-156,92
4951,822,738,896,730,179,4604,-15852,-1640,-772,-148,80
4954,806,737,896,733,176,4648,-15792,-1444,-768,-166,60
4957,805,740,893,741,170,4560,-15800,-1688,-747,-176,30
4960,805,751,894,743,172,4568,-15884,-1664,-798,-213,12
4963,801,751,893,746,173,4472,-15892,-1524,-835,-204,8
4966,799,751,886,751,169,4604,-15956,-1440,-863,-230,-23
4969,800,752,887,750,171,4516,-15952,-1480,-905,-218,-33
4972,803,754,891,741,174,4404,-15984,-1356,-961,-257,-49
4975,802,753,884,741,175,4508,-15980,-1376,-983,-239,-56
4978,806,741,884,740,166,4384,-15904,-1420,-1027,-242,-39
4981,799,745,885,738,173,4400,-16060,-1356,-1064,-223,-41
4984,805,743,883,730,170,4380,-15940,-1340,-1101,-183,-64
4987,805,747,885,735,170,4380,-15888,-1296,-1135,-142,-33
4990,797,752,886,738,170,4344,-15876,-1260,-1181,-147,-12
4993,791,758,886,738,166,4320,-15796,-1312,-1186,-112,18
4996,790,762,882,739,169,4416,-15872,-1504,-1211,-73,8
4999,800,767,886,737,175,4332,-15804,-1504,-1231,-25,7
5002,793,772,891,738,175,4348,-15900,-1484,-1260,-6,21
5005,795,767,895,743,175,4276,-15872,-1348,-1294,-4,14
5008,799,758,895,742,176,4376,-15948,-1412,-1304,16,34
5011,792,752,892,742,183,4304,-15968,-1608,-1342,37,33
5014,791,738,898,741,189,4272,-15832,-1360,-1353,15,29
5017,780,727,897,736,193,4360,-15796,-1524,-1314,-3,32
5020,787,715,900,749,207,4364,-15840,-1436,-1289,11,29
5023,784,717,898,743,208,4348,-15836,-1436,-1244,-3,33
5026,782,711,901,740,204,4440,-15784,-1408,-1174,-6,27
5029,779,717,897,752,205,4412,-15888,-1400,-1120,38,48
5032,781,730,898,743,199,4512,-15920,-1448,-1078,-36,61
5035,779,733,898,742,198,4368,-16036,-1548,-994,98,35
5038,781,737,895,741,198,4368,-15968,-1384,-965,142,50
5041,784,741,901,742,192,4420,-16036,-1240,-979,146,67
5044,785,741,897,741,190,4452,-16044,-1400,-989,118,34
5047,778,749,898,737,189,4432,-16140,-1148,-949,135,35
5050,785,752,895,731,183,4312,-16040,-1220,-931,124,55
5053,785,754,897,731,187,4444,-16000,-1456,-927,104,56
5056,786,752,894,735,203,4448,-15932,-1424,-873,133,39
5059,789,752,893,733,207,4480,-16000,-1472,-845,153,63
5062,793,753,893,727,223,4464,-15996,-1716,-829,207,48
5065,787,754,890,731,221,4380,-15840,-1520,-809,215,26
5068,794,753,890,733,217,4520,-15968,-1588,-825,229,-14
5071,783,761,889,737,211,4456,-15892,-1796,-828,211,5
5074,781,759,890,737,213,4420,-15956,-1580,-839,156,-6
5077,784,764,888,738,208,4424,-15928,-1756,-853,138,-26
5080,784,768,885,739,202,4408,-16016,-1752,-894,91,-17
5083,783,765,881,739,205,4552,-16024,-1780,-914,31,-34
5086,783,767,889,738,199,4488,-15992,-1720,-962,16,-61
5089,784,765,884,743,193,4428,-15996,-1608,-987,-4,-36
5092,791,765,887,736,192,4364,-16048,-1532,-1028,-1,-28
5095,794,769,889,738,192,4452,-15960,-1600,-1011,-34,-30
5098,800,769,885,742,191,4456,-15988,-1612,-1026,-31,-1
5101,801,770,884,739,192,4424,-16084,-1524,-1055,-11,-12
5104,799,773,882,746,193,4412,-16140,-1692,-1067,-9,25
5107,803,768,886,746,202,4568,-16100,-1692,-1122,28,42
5110,795,757,889,743,208,4452,-16080,-1672,-1138,44,46
5113,790,754,893,749,215,4416,-16048,-1368,-1182,34,44
5116,798,738,892,746,224,4428,-16080,-1560,-1207,21,41
5119,795,734,896,750,223,4468,-15972,-1728,-1209,32,47
5122,802,721,896,749,222,4404,-15972,-1796,-1214,56,70
5125,801,719,895,750,219,4416,-16060,-1692,-1193,97,72
5128,800,720,896,749,215,4424,-16004,-1680,-1192,85,81
5131,796,720,895,749,220,4420,-16068,-1692,-1169,91,102
5134,795,725,896,750,219,4404,-16040,-1692,-1194,52,110
5137,784,731,894,759,221,4412,-16048,-1628,-1200,-25,110
5140,784,741,893,751,215,4412,-16004,-1596,-1191,-82,125
5143,784,749,891,743,209,4436,-16028,-1444,-1216,-130,113
5146,784,745,892,749,208,4480,-16080,-1520,-1179,-147,139
5149,784,742,883,745,205,4488,-15940,-1336,-1179,-171,152
5152,788,761,890,741,208,4560,-15932,-1336,-1155,-167,135
5155,787,753,886,741,206,4720,-15920,-1328,-1147,-145,162
5158,784,752,884,734,208,4620,-15912,-1472,-1122,-137,177
5161,787,749,885,743,204,4600,-15788,-1148,-1113,-83,169
5164,794,753,887,751,200,4592,-15788,-1304,-1102,-76,173
5167,801,751,892,735,206,4684,-15840,-1396,-1070,-77,137
5170,801,749,884,735,205,4780,-15676,-1304,-1043,-35,137
5173,800,752,883,731,205,4656,-15752,-1384,-1004,-38,139
5176,803,752,893,739,198,4732,-15756,-1540,-986,-35,105
5179,799,753,891,739,195,4744,-15780,-1424,-940,-49,103
5182,798,765,885,742,208,4632,-15756,-1388,-919,-39,77
5185,796,756,885,744,205,4684,-15684,-1568,-881,112,82
5188,801,759,883,743,201,4316,-15808,-1828,-969,-433,42
5191,787,759,887,739,198,4760,-15872,-1228,-835,-40,36
5194,791,758,891,741,198,4672,-15892,-1464,-763,153,52
5197,790,754,882,741,199,4640,-15896,-1620,-741,173,65
5200,785,759,890,739,205,4528,-15936,-1760,-809,4,48
5203,784,765,886,748,207,4540,-15868,-1536,-794,-46,36
5206,784,761,895,746,207,4520,-15968,-1688,-775,-7,53
5209,790,766,885,743,201,4480,-15956,-1728,-823,-127,54
5212,787,763,887,742,198,4556,-15952,-1588,-870,-194,63
5215,797,765,889,743,195,4424,-15932,-1572,-848,-195,71
5218,790,766,889,745,203,4436,-16024,-1636,-873,-156,90
5221,789,767,883,742,207,4440,-15968,-1600,-891,-105,98
5224,791,763,879,742,205,4500,-15928,-1744,-922,-94,124
5227,800,770,882,747,202,4404,-15888,-1572,-973,-64,181
5230,802,772,884,749,203,4448,-15956,-1556,-1022,-33,178
5233,809,775,893,730,202,4432,-15896,-1596,-1033,-63,217
5236,801,781,891,742,202,4356,-15984,-1468,-1079,-59,194
5239,807,782,889,749,203,4384,-15824,-1628,-1082,-10,250
5242,807,781,896,741,193,4456,-15984,-1648,-1057,54,246
5245,803,784,890,733,194,4356,-16068,-1472,-1065,83,253
5248,800,787,896,746,186,4364,-16052,-1408,-1050,80,282
5251,799,791,894,744,189,4376,-16068,-1572,-1053,126,273
5254,795,801,896,747,191,4464,-16120,-1552,-1050,159,265
5257,786,806,896,739,191,4492,-16120,-1508,-1072,129,285
5260,791,811,891,741,188,4388,-16088,-1484,-1073,114,260
5263,789,813,890,739,183,4312,-16068,-1536,-1088,67,244
5266,797,816,890,741,187,4324,-16120,-1688,-1066,2,236
5269,791,824,891,737,182,4408,-16096,-1508,-1053,-14,201
5272,791,820,893,731,185,4272,-16080,-1504,-1014,-35,167
5275,789,815,893,736,181,4228,-16076,-1492,-940,-90,195
5278,788,806,890,737,186,4404,-16072,-1560,-875,-205,170
5281,795,791,886,745,185,4196,-16060,-1928,-829,-613,240
5284,795,781,889,742,194,4484,-15960,-1188,-883,-325,140
5287,795,773,885,743,199,4480,-16036,-1460,-790,-145,116
5290,794,765,887,746,201,4532,-16004,-1476,-809,-84,110
5293,801,767,891,749,199,4476,-15896,-1472,-759,-72,69
5296,804,758,886,751,208,4408,-15980,-1428,-661,-70,83
5299,803,763,885,751,212,4308,-15968,-1352,-630,-136,57
5302,805,762,894,751,215,4272,-15960,-1440,-585,-204,55
5305,806,766,887,751,208,4256,-15996,-1256,-555,-243,84
5308,810,762,888,748,208,4240,-16044,-1468,-540,-204,85
5311,811,759,886,749,208,4212,-15952,-1448,-510,-197,68
5314,810,753,885,746,209,4324,-15980,-1468,-501,-79,91
5317,816,761,892,743,208,4300,-15824,-1504,-512,-28,92
5320,813,763,885,745,207,4408,-15876,-1436,-549,-19,87
5323,807,767,883,746,206,4420,-15640,-1316,-562,24,106
5586,830,765,898,760,283,4368,-15976,-1344,-954,-44,-132
5590,826,757,895,752,285,4472,-15992,-1240,-951,-97,-143
5593,810,741,887,734,256,4392,-16056,-1424,-962,-134,-130
5596,802,741,892,731,256,4444,-15968,-1160,-954,-122,-128
5599,799,737,895,726,242,4400,-15964,-1424,-966,-140,-146
5602,797,737,899,733,243,4360,-15960,-1448,-964,-138,-151
5605,784,743,900,731,233,4324,-15892,-1408,-957,-114,-135
5608,797,742,902,729,237,4396,-15892,-1404,-930,-104,-147
5611,795,742,906,730,230,4308,-15936,-1456,-947,-104,-116
5614,797,743,900,726,228,4356,-15952,-1344,-938,-116,-132
5617,795,743,901,722,224,4344,-15980,-1504,-961,-124,-111
5620,794,747,894,725,223,4284,-15880,-1488,-968,-144,-92
5623,794,739,889,725,225,4336,-15864,-1488,-982,-145,-94
5626,791,737,891,725,222,4280,-15960,-1404,-1006,-140,-98
5629,789,736,895,734,223,4420,-16044,-1484,-1040,-144,-45
5632,798,733,895,732,216,4384,-16052,-1452,-1055,-140,-71
5635,800,728,897,732,221,4412,-16076,-1624,-1104,-106,-58
5638,796,727,898,731,215,4396,-16052,-1640,-1154,-121,-46
5641,804,731,902,724,218,4344,-15984,-1424,-1197,-130,-51
5644,803,730,910,727,208,4300,-16004,-1452,-1240,-143,-40
5647,801,725,913,730,216,4400,-16088,-1580,-1298,-208,-24
5650,809,731,914,735,208,4272,-16140,-1620,-1328,-193,-29
5653,806,733,913,742,207,4380,-15928,-1352,-1338,-225,-59
5656,802,734,912,737,202,4240,-15924,-1452,-1386,-221,-41
5659,794,737,912,738,206,4220,-15832,-1364,-1366,-223,-35
5662,798,750,912,740,193,4224,-15852,-1372,-1380,-223,-35
5665,800,755,911,733,193,4208,-15956,-1268,-1349,-109,-5
5668,800,764,913,730,199,4292,-15904,-1240,-1405,-339,-14
5671,798,771,912,731,203,4272,-15940,-1532,-1375,-169,-3
5674,790,769,910,731,198,4356,-15912,-1292,-1330,-28,21
5677,793,775,909,729,198,4408,-16012,-1568,-1300,31,33
5680,791,779,909,731,200,4248,-15984,-1552,-1331,2,23
5683,796,784,912,737,192,4256,-15916,-1464,-1322,-45,-18
5686,795,781,901,735,192,4392,-15912,-1476,-1305,-82,8
5689,788,781,896,738,189,4472,-16048,-1460,-1304,-104,-26
5692,785,783,899,733,187,4392,-15896,-1440,-1307,-118,-18
5695,778,773,894,733,192,4424,-15856,-1392,-1290,-152,-31
5698,779,769,888,733,193,4404,-15912,-1416,-1273,-150,-21
5701,775,766,893,734,191,4496,-15904,-1372,-1222,-99,-35
5704,773,767,882,732,193,4464,-15860,-1336,-1183,-57,-24
5707,770,763,880,734,199,4600,-15848,-1456,-1109,14,-48
5710,773,767,880,735,214,4532,-15888,-1580,-1087,71,-41
5713,773,771,880,735,213,4524,-15844,-1644,-1035,78,-49
5716,774,774,879,742,219,4500,-15868,-1428,-1015,150,-72
5719,777,769,881,739,212,4588,-15896,-1672,-960,174,-80
5722,774,765,879,759,213,4544,-15952,-1592,-943,176,-79
5725,778,755,879,738,209,4448,-15864,-1604,-876,121,-77
5728,779,752,877,733,208,4568,-15920,-1536,-843,92,-75
5731,784,748,881,738,209,4424,-15968,-1672,-834,86,-79
5734,784,749,880,735,208,4372,-15976,-1712,-794,49,-113
5737,784,749,881,735,194,4316,-15976,-1596,-808,9,-96
5740,784,751,880,733,195,4320,-15980,-1520,-828,-29,-123
5743,786,752,884,741,193,4344,-16088,-1504,-846,-31,-95
5746,785,752,882,735,193,4324,-15948,-1476,-881,-48,-77
5749,784,752,882,738,192,4456,-15920,-1468,-912,-35,-98
5752,784,764,887,740,190,4260,-15964,-1520,-973,1,-60
5755,788,756,883,736,192,4344,-16020,-1552,-996,7,-55
5758,790,754,889,735,192,4364,-15848,-1596,-1049,44,-53
5761,784,761,891,729,196,4356,-15912,-1552,-1069,39,-34
5764,784,764,891,734,192,4432,-15980,-1664,-1098,31,-21
5767,788,763,890,740,192,4384,-15896,-1568,-1155,30,-18
5770,792,768,887,735,188,4268,-15896,-1496,-1176,44,-27
5773,802,770,890,745,185,4300,-15968,-1560,-1190,19,-19
5776,791,770,887,743,192,4260,-15884,-1560,-1169,-5,-45
5779,796,770,892,749,194,4324,-15864,-1732,-1178,-46,-22
5782,791,768,884,739,194,4316,-15832,-1696,-1147,-68,-37
5785,799,767,888,743,193,4388,-15996,-1492,-1162,-80,-36
5788,803,763,887,748,196,4344,-15908,-1628,-1111,-54,-43
5791,799,761,882,739,192,4344,-15984,-1680,-1112,-118,-40
5794,806,751,883,747,197,4404,-16016,-1692,-1123,-130,-42
5797,806,752,884,754,198,4400,-15972,-1576,-1088,-113,-35
5800,804,752,880,750,194,4368,-15900,-1544,-1109,-112,-27
5803,797,751,883,741,199,4404,-15948,-1488,-1077,-126,-50
5806,796,746,883,745,194,4484,-15964,-1540,-1042,-94,-29
5809,784,752,880,738,198,4440,-15980,-1460,-1034,-78,-30
5812,787,752,882,735,206,4424,-15880,-1552,-1016,-67,-17
5815,784,754,880,740,197,4516,-15896,-1604,-1024,-54,-16
5818,791,779,885,738,195,4468,-15944,-1452,-1058,-1,-12
5821,793,763,883,741,194,4388,-15964,-1564,-1037,21,-12
5824,790,771,887,741,190,4532,-15972,-1692,-1041,29,-11
5827,790,778,887,739,194,4352,-16104,-1516,-1054,40,4
5830,784,779,887,737,194,4376,-16052,-1696,-1047,17,-22
5833,786,778,891,738,198,4308,-16020,-1536,-1050,-3,6
5836,784,779,897,740,198,4364,-16080,-1472,-1035,-31,4
5839,790,773,886,740,189,4272,-16112,-1508,-1024,-42,1
5842,785,771,889,741,191,4364,-16032,-1476,-1007,-44,-2
5845,777,778,890,745,185,4368,-16072,-1468,-965,-63,10
5848,775,778,886,747,190,4492,-15980,-1488,-936,-40,37
5851,784,774,881,745,180,4248,-16116,-1636,-929,-74,38
5854,784,774,884,746,182,4324,-15948,-1556,-924,-90,55
5857,786,780,883,746,182,4260,-15976,-1460,-930,-104,40
5860,787,773,883,747,189,4472,-15956,-1592,-956,-129,60
5863,789,775,887,742,195,4336,-15944,-1516,-959,-124,43
5866,791,758,903,741,198,4400,-15952,-1588,-935,-133,56
5869,791,752,886,746,203,4524,-15904,-1520,-964,-116,41
5872,794,748,886,747,206,4480,-15924,-1416,-935,-59,43
5875,798,743,887,745,204,4316,-15924,-1412,-971,-357,45
5878,788,743,883,747,205,4368,-16012,-1324,-860,-149,36
5881,789,742,885,751,208,4452,-15876,-1388,-801,-231,74
5884,786,740,891,743,198,4400,-15928,-1608,-859,-395,66
5887,787,749,883,751,206,4360,-15928,-1312,-886,-286,10
5890,794,748,885,746,199,4436,-15908,-1512,-826,-87,-50
5893,790,749,882,749,203,4508,-15812,-1624,-806,-181,-19
5896,796,746,887,746,208,4328,-15844,-1640,-851,-332,1
5899,795,747,885,749,198,4508,-15844,-1416,-845,-171,-66
5902,801,742,886,737,197,4324,-15800,-1624,-841,-79,-65
5905,801,746,889,739,200,4308,-15756,-1640,-828,-172,-70
5908,801,752,885,746,199,4244,-15804,-1516,-861,-240,-14
5911,803,756,882,742,198,4300,-15820,-1660,-879,-161,-36
5914,802,757,882,746,193,4340,-15844,-1612,-885,-89,-32
5917,799,759,886,738,193,4260,-15784,-1668,-888,-50,-57
5920,797,760,885,746,195,4212,-15848,-1600,-904,6,-30
5923,789,767,893,739,192,4076,-15756,-1564,-893,-35,-27
5926,794,768,882,743,195,4192,-15848,-1724,-904,-28,-8
5929,795,759,880,740,192,4124,-15820,-1560,-908,-41,-10
5932,793,752,881,747,195,4112,-15804,-1600,-922,-87,0
5935,800,749,878,742,195,4084,-15808,-1544,-952,-167,5
5938,799,747,883,745,192,4148,-15812,-1548,-942,-203,-12
5941,802,737,882,745,192,4152,-15760,-1632,-934,-198,26
5944,800,738,879,746,192,4304,-15836,-1468,-923,-208,4
5947,799,739,880,747,188,4188,-15848,-1492,-883,-227,18
5950,797,740,879,742,190,4140,-15916,-1524,-851,-198,1
5953,805,745,883,746,193,4232,-15884,-1540,-840,-205,-9
5956,805,752,885,743,192,4256,-15880,-1536,-802,-175,-10
5959,805,752,885,746,197,4308,-15888,-1448,-797,-139,-7
5962,814,754,883,752,196,4176,-15868,-1340,-770,-131,-32
5965,806,753,886,750,193,4248,-15936,-1680,-775,-146,-31
5968,806,757,889,743,202,4260,-15908,-1184,-762,-148,-24
5971,800,758,888,737,194,4260,-15944,-1436,-811,-159,-51
5974,799,761,884,736,205,4244,-15972,-1408,-763,-195,-32
5977,798,763,886,735,199,4276,-15976,-1484,-810,-157,-42
5980,795,763,889,738,201,4200,-15848,-1480,-790,-176,-51
5983,798,766,887,736,192,4220,-15932,-1420,-790,-132,-37
5986,793,762,885,736,194,4192,-15888,-1528,-797,-113,-35
5989,799,764,884,741,195,4408,-15788,-1516,-814,-119,-70
5992,796,758,886,734,192,4232,-15820,-1560,-815,-131,-30
5995,791,766,886,732,195,4284,-15920,-1600,-853,-140,-54
5998,789,765,882,733,189,4200,-15948,-1400,-839,-136,-21
6001,793,764,883,731,192,4252,-16020,-1608,-863,-165,-56
6004,791,763,880,733,188,4244,-16040,-1476,-862,-166,-35
6007,788,764,881,735,188,4256,-16088,-1532,-873,-201,-62
6010,784,767,881,742,185,4244,-15964,-1580,-855,-153,-37
6013,784,763,882,732,189,4148,-15936,-1864,-955,-354,-93
6016,787,759,882,735,191,4372,-16028,-1360,-836,-163,-54
6019,785,761,881,735,192,4300,-16008,-1516,-881,-73,-63
6022,786,753,889,749,185,4444,-15928,-1672,-844,-59,-33
6025,790,752,890,737,190,4240,-15968,-1548,-888,-160,-74
6028,791,757,894,741,191,4352,-15840,-1400,-861,-128,-60
6031,793,752,884,743,191,4392,-16020,-1524,-883,-104,-84
6034,794,757,890,739,197,4416,-15944,-1572,-881,-138,-72
6037,802,752,892,743,191,4352,-15876,-1464,-909,-172,-112
6040,802,757,889,741,187,4320,-15940,-1492,-912,-163,-83
6043,800,756,883,740,186,4396,-15916,-1548,-873,-138,-114
6046,805,763,886,739,185,4184,-15924,-1556,-894,-163,-82
6049,802,763,885,739,188,4340,-15972,-1516,-873,-155,-110
6052,801,766,889,738,183,4420,-15876,-1388,-889,-147,-102
6055,798,768,887,737,180,4452,-15964,-1280,-849,-150,-104
6058,802,768,885,742,187,4364,-15896,-1300,-816,-146,-125
6061,801,773,887,752,189,4300,-15952,-1308,-871,-199,-132
6064,799,767,882,741,183,4312,-16016,-1344,-810,-111,-126
6067,797,767,890,739,182,4316,-15964,-1552,-778,-101,-120
6070,793,765,881,743,180,4360,-16012,-1440,-810,-78,-152
6073,786,768,886,735,178,4440,-16004,-1448,-787,-79,-133
6076,787,770,886,736,187,4400,-16040,-1524,-806,-84,-144
6079,783,773,880,737,187,4404,-16084,-1560,-822,-111,-147
6082,783,775,887,739,190,4332,-15968,-1464,-798,-111,-156
6085,784,782,887,738,186,4332,-15940,-1492,-786,-137,-146
6088,784,786,886,734,182,4320,-15976,-1596,-816,-122,-160
6091,785,785,887,737,179,4300,-16044,-1500,-790,-128,-152
6094,788,786,894,746,181,4448,-16004,-1460,-789,-136,-157
6097,798,786,883,735,183,4328,-15936,-1516,-756,-124,-193
6100,794,783,889,735,183,4352,-16016,-1436,-810,-131,-159
6103,793,783,887,738,182,4508,-16020,-1512,-737,-138,-167
6106,787,783,884,737,186,4408,-15972,-1536,-716,-157,-146
6109,787,784,889,735,180,4420,-15984,-1500,-671,-162,-161
6112,785,779,893,736,182,4492,-15932,-1544,-644,-145,-171
6115,785,779,887,734,188,4484,-15916,-1456,-642,-184,-159
6118,784,806,891,735,183,4448,-16012,-1420,-624,-167,-202
6121,784,786,889,731,181,4492,-16032,-1592,-630,-154,-206
6124,786,787,889,726,176,4484,-15972,-1468,-611,-159,-243
6127,789,791,885,737,175,4540,-16032,-1332,-632,-168,-242
6130,789,789,889,727,178,4492,-15912,-1384,-680,-148,-281
6133,786,794,887,725,179,4424,-16052,-1552,-669,-78,-299
6136,783,794,882,722,179,4500,-16064,-1340,-704,-44,-314
6139,784,795,883,722,186,4620,-16164,-1416,-730,-41,-310
6142,776,795,889,730,186,4452,-16132,-1492,-732,0,-355
6145,786,795,887,725,179,4336,-16192,-1704,-723,-185,-347
6148,773,787,890,733,179,4332,-16112,-1788,-789,-214,-389
6151,783,784,890,732,177,4448,-16168,-1456,-732,-120,-403
6154,783,782,890,731,182,4276,-16116,-1652,-798,-114,-430
6157,777,781,884,733,177,4384,-16256,-1532,-754,-198,-390
6160,779,780,883,730,176,4308,-16200,-1732,-790,-298,-404
6163,783,786,883,726,178,4280,-16196,-1572,-878,-335,-452
6166,783,778,883,736,176,4348,-16204,-1496,-942,-370,-475
6169,784,787,886,724,178,4224,-16308,-1440,-1009,-406,-517
6172,784,786,883,724,176,4320,-16264,-1488,-1064,-444,-556
6175,781,786,884,727,174,4364,-16388,-1536,-1133,-327,-600
6178,784,797,881,731,177,4344,-16180,-1384,-1164,-176,-652
6181,784,801,880,732,176,4384,-16124,-1240,-1228,-123,-693
6184,784,799,883,730,174,4132,-16224,-1504,-1170,-300,-666
6187,775,807,880,733,166,4164,-16072,-1272,-1213,-286,-713
6190,780,803,887,736,166,4352,-16168,-1396,-1189,-459,-700
6193,784,814,885,736,163,4248,-16092,-1356,-1246,-469,-710
6196,790,822,882,740,175,4280,-16152,-1472,-1171,-404,-707
6199,798,832,895,739,177,4336,-16200,-1336,-1179,-410,-712
6202,804,834,879,736,176,4396,-16120,-1288,-1195,-380,-760
6205,806,842,882,742,182,4440,-15980,-1468,-1218,-396,-799
6208,811,830,879,745,183,4380,-16032,-1476,-1203,-350,-838
6211,811,838,879,743,185,4384,-16072,-1596,-1179,-354,-816
6214,815,829,880,743,183,4524,-15976,-1640,-1213,-340,-862
6217,816,827,879,740,195,4496,-16080,-1792,-1175,-257,-844
6220,816,831,892,750,192,4480,-16068,-1848,-1219,-228,-885
6223,821,816,874,754,186,4484,-16072,-1948,-1252,-185,-877
6226,824,809,873,752,186,4568,-16032,-1532,-1263,-211,-862
6229,831,784,870,754,189,4308,-16056,-2048,-1293,-569,-830
6232,830,772,875,752,190,4436,-15960,-1740,-1178,-263,-859
6235,826,754,875,751,189,4352,-15892,-2004,-1147,-26,-886
6238,818,742,867,752,189,4468,-15796,-1900,-1251,1,-961
6241,824,741,874,752,198,4352,-15704,-1928,-1270,94,-946
6244,817,742,879,752,192,4332,-15840,-1316,-1298,380,-977
6247,815,740,878,751,195,4364,-15884,-1548,-1241,313,-917
6250,815,742,880,746,192,4228,-15920,-1640,-1207,202,-874
6253,799,743,880,747,193,4156,-15764,-1652,-1217,106,-875
6256,803,743,880,742,201,3960,-15800,-1660,-1159,-31,-846
6259,803,739,880,742,193,3720,-15844,-1948,-1093,-265,-812
6262,806,741,880,750,190,3596,-15700,-2092,-1166,-381,-881
6265,807,745,882,739,193,3680,-15764,-1936,-960,76,-893
6268,811,752,885,751,204,3940,-15696,-2044,-841,355,-818
6271,819,758,880,742,243,3664,-15712,-1884,-745,636,-823
6274,824,758,887,739,257,3624,-15816,-2168,-671,477,-758
6277,833,755,889,746,272,3656,-15848,-1880,-871,436,-784
6280,841,757,896,744,271,3844,-15864,-2020,-1034,320,-773
6283,847,752,912,747,275,3768,-16148,-1864,-1151,204,-750
6286,842,753,896,752,279,3848,-16032,-2204,-1425,-219,-753
6289,829,752,894,752,278,3792,-16164,-1788,-1490,210,-728
6292,823,755,890,750,278,4032,-16252,-1660,-1585,586,-800
6295,816,759,879,750,272,3868,-16284,-1816,-1732,395,-844
6298,815,771,880,746,277,3880,-16152,-1832,-1904,51,-917
6301,816,765,882,748,271,3876,-16432,-1432,-1739,355,-906
6304,807,767,883,739,265,3860,-16140,-1720,-1958,-40,-980
6307,811,764,880,731,269,3828,-16128,-1900,-2019,-223,-967
6310,803,763,883,733,264,4064,-15988,-1340,-2001,-106,-929
6313,813,765,881,733,259,4120,-15996,-1232,-2064,155,-991
6316,811,762,880,730,255,4192,-15720,-1332,-2177,120,-1064
6319,815,767,882,739,247,4052,-15448,-1536,-2302,-329,-1062
6322,810,758,885,759,250,4048,-15504,-1428,-2310,-505,-1076
6325,807,762,880,741,244,4296,-15404,-1440,-2283,-576,-1085
6328,802,759,881,752,241,4360,-15268,-1636,-2262,-723,-1126
6331,800,764,887,743,237,4432,-15124,-1640,-2169,-637,-1133
6334,789,757,880,742,229,4596,-15020,-1532,-2011,-412,-1133
6337,787,751,880,749,227,4772,-15112,-1560,-1839,-49,-1138
6340,782,754,880,747,224,4844,-15124,-1716,-1778,146,-1163
6343,781,755,880,747,222,4936,-15276,-1776,-1685,364,-1097
6346,783,752,880,752,235,5152,-15332,-1700,-1654,583,-1035
6349,787,747,881,752,257,5100,-15504,-1912,-1653,667,-990
6352,787,741,885,757,270,5120,-15528,-1852,-1665,1040,-960
6355,789,743,880,759,304,5064,-15712,-1572,-1668,1369,-920
6358,789,731,887,759,299,5044,-15924,-1776,-1793,1182,-883
6361,790,741,884,752,304,4808,-16004,-2184,-2009,777,-901
6364,791,740,894,759,302,4920,-16108,-1732,-1980,681,-832
6367,800,747,891,765,302,4856,-16228,-1984,-2083,631,-864
6370,804,755,905,757,307,4924,-15992,-2132,-2115,754,-940
6373,814,781,903,758,311,4896,-15952,-2272,-2245,612,-1033
6376,821,784,911,752,311,4600,-16120,-2216,-2234,129,-1036
6379,821,797,905,754,304,4472,-16072,-2172,-2343,-511,-1023
6382,794,805,899,752,302,4656,-16200,-1888,-2284,-333,-1118
6385,811,806,899,752,291,4752,-16136,-2032,-2188,103,-1190
6388,812,803,896,752,283,4532,-16136,-1920,-2266,-234,-1323
6391,815,796,901,754,286,4596,-16440,-1960,-1943,-208,-1230
6394,816,799,898,757,288,4568,-16452,-1928,-1673,-138,-1158
6397,815,804,903,763,282,4532,-16456,-2052,-1542,119,-1241
6400,831,807,919,782,314,4432,-16384,-2220,-1367,17,-1306
6403,835,815,945,773,314,4412,-16272,-2184,-1340,-285,-1409
6406,851,825,961,773,333,4452,-16180,-2464,-1251,-142,-1512
6409,870,827,973,768,336,4728,-16120,-2332,-1049,48,-1543
6412,886,832,976,771,323,4732,-16020,-2360,-947,105,-1552
6415,896,835,977,766,323,4660,-16092,-2384,-1054,-173,-1626
6418,897,837,976,766,321,4536,-16300,-2268,-1054,-256,-1624
6421,886,843,976,759,311,4764,-16220,-1944,-1117,-254,-1614
6424,880,845,961,758,304,4920,-16060,-1792,-1256,87,-1716
6427,874,848,946,752,305,4920,-16104,-1520,-1364,350,-1759
6430,867,848,946,743,302,4864,-16088,-1472,-1509,161,-1748
6433,861,854,947,740,290,4944,-15880,-1040,-1700,155,-1818
6436,859,847,944,733,304,4956,-15796,-1400,-1845,69,-1855
6439,865,843,946,722,308,5056,-15732,-1296,-1822,166,-1833
6442,877,834,950,729,303,4924,-15700,-1036,-1848,258,-1835
6445,877,822,944,742,304,5056,-15720,-1220,-1794,156,-1812
6448,877,811,941,743,320,5204,-15756,-1192,-1790,316,-1842
6451,869,795,934,751,311,5096,-15824,-1324,-1875,62,-1910
6454,859,784,926,748,304,4956,-15872,-1348,-1870,-131,-1931
6457,854,779,917,753,295,5128,-15748,-1344,-1822,-101,-1935
6460,841,750,912,759,288,5372,-15988,-1116,-1753,90,-1909
6463,829,746,907,764,288,5204,-15948,-1320,-1797,50,-1941
6466,818,731,898,759,278,5244,-16112,-1612,-1840,-107,-1931
6469,811,720,893,763,278,5436,-16228,-1412,-1696,215,-1888
6472,798,713,885,761,270,5592,-16024,-1220,-1604,397,-1820
6475,798,713,883,768,267,5348,-16096,-1712,-1639,394,-1782
6478,792,713,881,776,272,5336,-16040,-1324,-1613,582,-1874
6481,791,711,885,771,267,5348,-16048,-1604,-1529,459,-1791
6484,807,715,881,775,262,5388,-15804,-1144,-1399,563,-1785
6487,811,719,886,769,273,5164,-15688,-1864,-1443,62,-1721
6490,812,720,879,763,272,5324,-15732,-1664,-1544,40,-1715
6493,807,721,880,759,265,5276,-16340,-1780,-1391,407,-1675
6496,805,722,871,766,256,5212,-15640,-1316,-1341,351,-1628
6499,798,730,877,759,256,5200,-15616,-1736,-1470,346,-1730
6502,790,737,867,755,250,5124,-15516,-1532,-1235,506,-1700
6505,795,747,863,756,257,5120,-15424,-1628,-1274,395,-1667
6508,790,751,865,757,253,5576,-15364,-1552,-1101,804,-1634
6511,795,755,869,752,257,5400,-15200,-1748,-1256,1196,-1800
6514,790,758,870,752,259,5496,-15428,-1780,-1075,1540,-1699
6517,790,759,869,750,261,5180,-15480,-1932,-787,1521,-1449
6520,787,759,868,750,262,5124,-15444,-1944,-876,1408,-1491
6523,786,759,865,752,262,4756,-15448,-2372,-1123,916,-1463
6526,778,765,869,752,259,4724,-15504,-1844,-1290,1004,-1660
6529,775,758,865,752,256,4644,-15416,-2096,-1294,946,-1749
6532,788,756,874,753,256,4724,-15484,-1584,-1143,1020,-1731
6535,771,752,886,750,262,4564,-15504,-2324,-1057,877,-1653
6538,778,743,889,745,265,4324,-15376,-2024,-1349,456,-1905
6541,777,741,893,752,273,5640,-15404,-2556,-1400,1376,-2191
6544,771,745,887,745,272,3836,-16836,-2020,-445,24,-1402
6547,772,735,881,743,263,4208,-15884,-1932,-971,-33,-1749
6550,769,732,885,743,265,4460,-15356,-1676,-1268,-91,-1975
6553,777,729,881,742,257,4728,-15468,-1604,-1142,-349,-1983
6556,767,736,880,733,256,4912,-15612,-1764,-1216,-215,-1990
6559,761,741,873,731,249,4660,-15592,-1528,-1426,-359,-2118
6562,769,752,876,733,257,4536,-15648,-1636,-1225,-174,-1988
6565,773,765,877,737,288,4696,-15616,-1496,-1289,-29,-2128
6568,784,773,880,740,285,4764,-15820,-2060,-1149,274,-2048
6571,782,782,880,739,299,4720,-15900,-1816,-1121,90,-2085
6574,785,787,880,749,294,4600,-15700,-2308,-981,329,-1942
6577,784,787,877,750,292,4736,-15568,-1748,-918,436,-2088
6580,791,789,870,750,282,4384,-15948,-2284,-809,538,-2007
6583,793,789,873,742,277,4280,-16040,-1680,-519,63,-1790
6586,795,797,874,739,272,4368,-15928,-2348,-536,138,-1638
6589,791,799,871,735,273,4480,-15676,-2228,-620,-193,-1722
6592,800,812,867,725,278,4536,-15944,-2488,-394,176,-1676
6595,817,814,876,734,272,4716,-15644,-2176,-492,495,-1863
6598,834,816,877,732,269,4376,-15888,-2360,-356,1087,-1835
6601,847,815,877,725,271,4180,-15728,-2176,-523,456,-1807
6604,854,814,882,720,262,4396,-15412,-1564,-188,178,-1619
6607,864,811,880,722,266,4820,-15632,-3100,-466,602,-1745
6610,868,806,883,723,274,4520,-15716,-1804,-484,538,-1800
6613,867,807,887,726,275,4680,-15940,-2824,-702,6,-1731
6616,869,798,879,718,272,5016,-15668,-1856,-607,518,-1631
6619,869,788,880,725,278,5216,-15100,-2140,-779,349,-1747
6622,858,781,878,730,270,4988,-15916,-2620,-772,225,-1825
